sample,timestamp_ms,ax,ay,az,gx,gy,gz
0,8,43,29,2057,39,-15,29
1,9,16,47,2042,37,-12,33
2,10,14,29,2031,37,-12,36
3,11,15,40,2041,34,-17,40
4,12,2,50,2063,32,-22,45
5,13,-4,46,2050,35,-23,47
6,14,-4,51,2057,31,-20,49
7,15,5,45,2057,30,-18,48
8,16,0,54,2048,29,-23,49
9,17,6,59,2059,24,-30,51
10,18,6,47,2059,24,-38,54
11,19,-9,50,2066,29,-39,58
12,20,-2,47,2055,25,-37,63
13,21,-2,53,2056,19,-37,65
14,22,9,62,2059,17,-33,68
15,23,18,45,2056,21,-32,66
16,24,21,51,2051,23,-33,63
17,25,24,41,2051,22,-36,63
18,26,42,43,2054,22,-40,64
19,27,42,44,2069,16,-42,66
20,28,49,40,2067,16,-40,65
21,29,68,32,2049,17,-41,63
22,30,80,41,2036,18,-44,60
23,31,72,37,2061,15,-37,58
24,32,70,30,2050,14,-38,49
25,33,73,28,2055,17,-31,46
26,34,81,18,2053,19,-30,50
27,35,88,3,2053,15,-29,51
28,35,96,6,2048,13,-28,47
29,36,110,4,2057,15,-31,44
30,37,113,1,2057,13,-34,46
31,38,115,-4,2050,14,-34,42
32,39,105,3,2037,15,-34,36
33,40,104,-5,2041,11,-33,35
34,41,109,-9,2052,10,-34,38
35,42,112,-14,2069,12,-36,39
36,43,108,-4,2070,17,-31,39
37,44,112,-9,2060,19,-28,42
38,45,122,-10,2052,21,-28,39
39,46,123,-14,2045,19,-30,38
40,47,107,4,2043,17,-28,38
41,48,92,2,2050,18,-29,38
42,50,93,7,2059,18,-25,36
43,51,89,8,2054,15,-22,35
44,52,94,-2,2056,16,-24,35
45,53,100,5,2060,14,-27,31
46,54,90,12,2077,20,-25,23
47,55,80,14,2080,25,-22,18
48,56,76,4,2069,18,-19,14
49,57,63,10,2058,15,-21,13
50,58,66,15,2065,20,-28,14
51,59,67,12,2065,18,-23,17
52,60,62,16,2065,15,-22,18
53,61,57,23,2062,19,-21,21
54,62,38,9,2065,20,-18,22
55,63,29,9,2055,19,-26,22
56,64,28,20,2039,18,-26,24
57,65,11,24,2040,17,-23,32
58,66,17,37,2047,15,-20,40
59,67,13,26,2041,15,-22,44
60,68,19,31,2053,14,-22,47
61,69,16,36,2057,11,-22,53
62,70,13,25,2053,15,-28,58
63,71,17,32,2065,16,-28,66
64,72,0,34,2048,13,-29,72
65,73,12,31,2045,13,-33,74
66,74,11,35,2042,11,-29,79
67,75,33,42,2043,13,-28,86
68,76,39,28,2047,9,-34,92
69,77,32,24,2065,7,-37,96
70,78,34,23,2051,4,-36,102
71,79,40,31,2062,6,-37,105
72,80,48,36,2061,7,-40,111
73,81,33,33,2063,2,-43,113
74,82,36,45,2049,1,-44,115
75,83,32,40,2052,2,-46,119
76,84,36,39,2044,4,-42,120
77,85,41,44,2038,4,-37,121
78,86,58,44,2055,6,-28,125
79,87,59,52,2039,8,-25,133
80,88,65,47,2055,6,-27,135
81,89,74,38,2046,1,-28,137
82,90,76,33,2045,0,-28,143
83,91,82,39,2056,4,-31,145
84,92,70,33,2058,2,-33,149
85,93,73,25,2058,-2,-31,153
86,94,73,39,2074,1,-29,158
87,95,64,43,2060,-1,-33,161
88,96,60,35,2062,0,-28,162
89,97,63,26,2049,0,-28,164
90,98,74,30,2050,-4,-30,169
91,99,83,38,2047,-2,-27,170
92,100,90,30,2067,-2,-24,172
93,101,90,35,2041,-6,-28,168
94,102,92,37,2043,-7,-31,168
95,103,67,38,2042,-6,-32,173
96,104,69,30,2056,-6,-34,175
97,105,57,29,2049,-7,-33,179
98,106,62,34,2049,-8,-32,180
99,107,70,28,2044,-6,-26,174
100,108,68,26,2071,-5,-21,170
101,109,80,20,2056,-6,-26,172
102,110,71,25,2051,-7,-33,169
103,111,68,38,2058,-3,-33,170
104,112,70,42,2054,-5,-29,173
105,113,76,44,2082,-7,-26,173
106,114,67,34,2066,-9,-28,170
107,115,68,34,2048,-11,-32,168
108,116,71,28,2051,-11,-33,166
109,117,61,32,2055,-14,-29,164
110,118,59,37,2041,-11,-28,163
111,119,52,38,2055,-10,-29,165
112,120,48,26,2060,-14,-29,167
113,121,67,26,2058,-11,-28,162
114,122,70,42,2066,-11,-33,159
115,123,71,35,2059,-11,-33,159
116,124,75,29,2050,-16,-32,156
117,125,72,24,2051,-15,-34,157
118,126,70,30,2049,-15,-29,159
119,127,66,18,2043,-13,-22,156
120,128,66,24,2046,-15,-23,161
121,129,80,22,2054,-20,-33,168
122,130,73,19,2055,-17,-31,168
123,131,70,18,2043,-16,-28,167
124,132,69,11,2037,-18,-31,167
125,133,84,23,2039,-18,-31,174
126,134,82,9,2045,-20,-31,181
127,135,90,5,2044,-21,-33,185
128,136,81,1,2045,-16,-33,189
129,137,63,9,2050,-16,-30,195
130,138,77,21,2049,-13,-24,201
131,139,95,5,2045,-17,-19,209
132,140,101,2,2071,-19,-24,218
133,141,101,15,2056,-18,-29,222
134,142,99,18,2053,-15,-23,228
135,143,91,22,2055,-16,-20,230
136,144,91,18,2048,-20,-20,237
137,145,85,5,2052,-20,-20,239
138,146,77,18,2067,-16,-20,243
139,147,75,22,2060,-15,-17,249
140,148,77,21,2063,-17,-21,260
141,149,73,15,2055,-21,-25,267
142,150,73,5,2062,-22,-23,267
143,151,77,6,2055,-24,-21,266
144,152,57,17,2063,-20,-16,271
145,153,44,34,2059,-21,-18,282
146,154,45,14,2057,-22,-21,283
147,155,57,17,2056,-17,-19,284
148,156,66,15,2059,-15,-19,288
149,157,64,15,2062,-16,-16,295
150,158,55,13,2047,-17,-18,298
151,159,58,16,2041,-17,-21,298
152,160,53,29,2049,-20,-19,298
153,161,47,15,2059,-23,-15,302
154,162,54,20,2048,-24,-17,306
155,163,52,11,2049,-23,-18,305
156,164,55,26,2039,-23,-17,303
157,165,60,33,2036,-23,-17,302
158,166,63,23,2036,-26,-17,306
159,167,71,21,2041,-29,-18,307
160,168,73,16,2045,-28,-22,307
161,169,65,26,2043,-27,-23,300
162,170,65,26,2046,-28,-23,298
163,171,77,28,2062,-28,-23,297
164,172,74,1,2056,-24,-20,290
165,173,76,9,2080,-25,-21,290
166,174,78,19,2061,-26,-23,293
167,175,92,22,2057,-27,-23,286
168,176,79,14,2055,-29,-21,276
169,177,84,20,2049,-28,-22,271
170,178,95,17,2049,-27,-24,268
171,179,96,9,2050,-28,-23,265
172,180,111,11,2048,-27,-17,258
173,181,112,16,2053,-28,-15,247
174,182,115,21,2052,-27,-17,242
175,183,117,15,2042,-27,-18,241
176,184,116,16,2055,-30,-18,237
177,185,113,11,2054,-28,-19,230
178,186,112,18,2056,-26,-21,223
179,187,111,28,2059,-30,-21,217
180,188,114,14,2059,-31,-22,215
181,189,124,5,2049,-36,-21,212
182,190,127,11,2053,-37,-22,205
183,191,113,20,2042,-35,-23,198
184,192,109,18,2053,-28,-14,190
185,193,117,17,2055,-29,-12,184
186,194,115,26,2055,-31,-13,178
187,195,108,19,2051,-32,-14,173
188,196,115,20,2046,-30,-13,169
189,197,124,24,2037,-31,-10,161
190,198,120,15,2046,-38,-13,156
191,199,113,17,2051,-41,-13,148
192,200,111,19,2036,-34,-16,141
193,201,91,18,2048,-31,-19,135
194,202,90,25,2044,-35,-17,135
195,203,101,28,2046,-40,-17,128
196,204,114,32,2046,-40,-21,120
197,205,99,25,2049,-36,-25,120
198,206,80,25,2061,-37,-19,117
199,207,99,30,2066,-38,-13,110
200,208,106,28,2065,-41,-10,110
201,209,88,31,2064,-41,-10,112
202,210,87,28,2052,-42,-10,118
203,211,84,16,2069,-42,-14,115
204,212,80,21,2061,-42,-19,115
205,213,92,27,2062,-40,-16,117
206,214,93,13,2035,-40,-15,121
207,215,84,9,2041,-40,-13,125
208,216,83,23,2043,-42,-8,130
209,217,87,0,2057,-45,-10,135
210,218,93,1,2059,-44,-9,139
211,219,95,0,2057,-39,-6,139
212,220,89,3,2055,-38,-3,143
213,221,102,9,2037,-42,-4,147
214,222,95,-5,2070,-40,-5,149
215,223,93,3,2080,-41,-10,158
216,224,100,5,2069,-43,-10,162
217,225,110,7,2051,-42,-6,157
218,226,122,10,2051,-45,-6,152
219,227,123,9,2052,-45,-10,155
220,228,119,-10,2038,-41,-8,153
221,229,121,1,2033,-41,-6,153
222,230,119,-11,2037,-40,-9,152
223,231,129,-14,2018,-40,-6,150
224,232,127,-3,2051,-38,-4,147
225,233,123,-6,2047,-41,-4,143
226,234,139,2,2053,-46,-1,135
227,235,143,-4,2064,-51,-2,123
228,236,146,-14,2067,-45,-4,122
229,237,145,-25,2060,-41,-6,127
230,238,154,-7,2062,-42,-6,125
231,239,151,-17,2061,-44,0,122
232,240,149,-13,2052,-45,6,118
233,241,137,-25,2062,-40,9,110
234,242,127,-20,2076,-34,13,105
235,243,130,-33,2054,-37,12,102
236,244,128,-25,2035,-41,10,98
237,245,133,-19,2042,-41,14,103
238,246,140,-25,2046,-44,19,101
239,247,147,-29,2063,-44,21,101
240,248,127,-21,2069,-41,21,103
241,249,118,-30,2066,-39,16,103
242,250,117,-23,2076,-37,15,105
243,251,120,-17,2072,-37,12,103
244,252,116,-12,2051,-38,14,103
245,253,115,-18,2076,-35,16,102
246,254,100,-23,2055,-34,18,100
247,255,108,-34,2061,-32,23,100
248,256,111,-30,2054,-31,23,101
249,257,108,-37,2051,-33,21,104
250,258,92,-23,2038,-33,21,105
251,259,85,-18,2047,-34,18,107
252,260,78,-23,2058,-38,17,110
253,261,84,-24,2056,-34,20,117
254,262,90,-25,2054,-30,18,121
255,263,74,-27,2048,-28,21,120
256,264,63,-31,2030,-28,21,118
257,265,64,-32,2032,-31,24,117
258,266,65,-29,2051,-30,26,117
259,267,67,-17,2043,-34,28,115
260,268,72,-21,2047,-37,24,117
261,269,76,-26,2056,-35,22,119
262,270,75,-30,2054,-33,27,119
263,271,78,-22,2049,-37,27,117
264,272,82,-30,2052,-35,27,118
265,273,81,-31,2044,-37,21,122
266,274,96,-43,2060,-35,16,123
267,275,94,-26,2047,-31,24,128
268,276,116,-30,2052,-29,31,132
269,277,119,-28,2052,-30,28,130
270,278,121,-44,2055,-34,20,131
271,279,113,-38,2057,-32,17,132
272,280,120,-39,2063,-31,20,134
273,281,130,-29,2052,-33,22,134
274,282,119,-40,2070,-33,21,127
275,283,139,-42,2063,-31,22,124
276,284,137,-28,2052,-27,20,122
277,285,140,-37,2046,-27,23,123
278,286,152,-47,2055,-30,26,125
279,287,147,-53,2060,-30,27,122
280,287,136,-53,2063,-27,25,119
281,288,137,-49,2068,-22,31,110
282,289,130,-39,2058,-20,33,96
283,290,145,-38,2062,-25,33,82
284,291,142,-41,2065,-23,31,78
285,292,156,-27,2055,-18,30,70
286,293,155,-25,2063,-17,34,60
287,294,148,-35,2062,-18,37,49
288,295,129,-34,2072,-20,38,39
289,296,136,-39,2064,-22,40,25
290,297,130,-38,2059,-20,36,13
291,298,135,-34,2067,-20,37,5
292,299,123,-31,2053,-18,39,-1
293,300,129,-29,2058,-16,37,-12
294,302,125,-32,2055,-17,43,-23
295,303,102,-29,2064,-19,52,-25
296,304,91,-17,2064,-17,51,-35
297,305,95,-26,2066,-16,46,-45
298,306,94,-24,2055,-16,48,-47
299,307,90,-38,2046,-15,49,-53
300,308,89,-13,2042,-13,46,-57
301,309,94,-28,2051,-15,43,-59
302,310,89,-33,2041,-16,42,-63
303,311,85,-33,2043,-13,43,-64
304,312,75,-21,2059,-12,40,-71
305,313,62,-11,2067,-13,35,-70
306,314,54,-15,2070,-17,35,-65
307,315,51,-37,2059,-19,42,-62
308,316,57,-24,2056,-17,45,-62
309,317,64,-20,2041,-14,45,-66
310,318,63,-17,2052,-15,43,-61
311,319,54,-26,2061,-15,45,-57
312,320,58,-28,2064,-14,40,-49
313,321,64,-23,2061,-14,38,-46
314,322,71,-23,2049,-16,42,-42
315,323,65,-44,2049,-15,47,-39
316,324,80,-44,2069,-12,41,-37
317,325,74,-40,2069,-8,36,-35
318,326,75,-41,2064,-10,42,-29
319,327,79,-41,2052,-9,48,-22
320,328,82,-20,2056,-11,41,-16
321,329,87,-31,2057,-11,33,-13
322,330,102,-49,2067,-9,34,-13
323,331,99,-57,2055,-10,35,-17
324,332,88,-52,2048,-7,35,-20
325,333,87,-65,2042,-5,37,-20
326,334,94,-57,2065,-7,42,-14
327,335,107,-50,2072,-6,46,-14
328,336,105,-71,2062,-1,45,-22
329,337,111,-68,2060,-4,41,-26
330,338,119,-52,2055,-8,44,-30
331,339,106,-63,2066,-4,51,-36
332,340,103,-65,2046,1,53,-39
333,341,109,-78,2034,2,48,-44
334,342,118,-64,2051,2,46,-49
335,343,124,-62,2058,2,44,-56
336,344,121,-66,2055,2,42,-67
337,345,104,-67,2070,1,45,-75
338,346,98,-66,2055,6,44,-81
339,347,112,-77,2059,10,49,-92
340,348,102,-73,2043,6,51,-103
341,349,87,-66,2036,4,46,-110
342,350,83,-68,2066,7,47,-119
343,351,87,-83,2081,10,50,-127
344,352,91,-77,2069,11,51,-135
345,353,90,-81,2060,13,47,-148
346,354,90,-67,2053,15,48,-160
347,355,87,-73,2082,17,51,-163
348,356,91,-80,2072,16,51,-163
349,357,77,-80,2078,16,51,-172
350,358,72,-75,2069,20,53,-181
351,359,73,-61,2068,20,53,-190
352,360,73,-64,2060,20,49,-197
353,361,64,-59,2067,20,45,-204
354,362,62,-59,2067,17,46,-209
355,363,55,-61,2061,18,47,-210
356,364,48,-72,2057,22,44,-212
357,365,59,-54,2065,25,46,-218
358,366,44,-59,2069,26,44,-228
359,367,47,-62,2050,22,42,-238
360,368,50,-64,2057,23,42,-240
361,369,39,-67,2065,25,45,-242
362,370,41,-47,2044,30,39,-245
363,371,58,-43,2062,29,39,-247
364,372,61,-62,2053,27,43,-248
365,373,57,-61,2065,27,39,-253
366,374,54,-64,2071,30,32,-259
367,375,46,-49,2070,30,33,-259
368,376,52,-45,2058,28,36,-259
369,377,48,-52,2043,30,36,-261
370,378,64,-55,2027,31,28,-266
371,379,55,-53,2026,33,30,-272
372,380,53,-45,2044,37,36,-275
373,381,57,-56,2051,38,38,-274
374,382,62,-50,2069,39,37,-274
375,383,65,-49,2045,42,37,-281
376,384,61,-54,2065,38,38,-281
377,385,70,-43,2046,33,40,-279
378,386,80,-44,2037,38,40,-281
379,387,76,-36,2041,39,42,-282
380,388,66,-47,2056,40,42,-286
381,389,57,-40,2050,40,41,-283
382,390,55,-37,2053,43,40,-279
383,391,55,-29,2066,48,35,-278
384,392,48,-41,2073,48,34,-276
385,393,42,-22,2052,42,37,-282
386,394,51,-27,2050,42,34,-283
387,395,59,-22,2042,45,29,-278
388,396,49,-32,2051,39,34,-276
389,397,48,-38,2052,43,38,-271
390,398,40,-46,2045,43,36,-272
391,399,37,-44,2064,46,36,-278
392,400,40,-48,2065,43,32,-279
393,401,33,-57,2056,43,30,-277
394,402,33,-54,2066,43,32,-276
395,403,34,-41,2074,48,25,-272
396,404,42,-41,2068,51,27,-270
397,405,40,-44,2067,52,26,-270
398,406,29,-33,2053,50,21,-269
399,407,17,-31,2054,52,20,-269
400,408,25,-39,2049,52,24,-270
401,409,41,-27,2053,49,26,-266
402,410,27,-26,2049,47,27,-262
403,411,31,-27,2070,50,29,-262
404,412,17,-37,2050,52,26,-260
405,413,12,-30,2057,57,25,-254
406,414,28,-39,2050,57,27,-254
407,415,41,-51,2051,54,31,-255
408,416,32,-42,2057,55,31,-253
409,417,45,-39,2042,59,29,-248
410,418,53,-52,2037,59,21,-245
411,419,52,-58,2057,55,19,-242
412,420,47,-40,2059,53,24,-237
413,421,47,-38,2059,56,28,-231
414,422,39,-46,2042,59,26,-230
415,423,43,-53,2050,60,21,-227
416,424,52,-59,2057,52,18,-224
417,425,45,-55,2060,49,22,-216
418,426,51,-40,2050,55,26,-207
419,427,55,-41,2044,58,26,-203
420,428,46,-57,2067,65,25,-202
421,429,45,-56,2048,68,22,-204
422,430,48,-65,2059,66,21,-203
423,431,47,-41,2058,61,22,-195
424,432,41,-52,2057,66,24,-190
425,433,31,-53,2065,71,25,-186
426,434,36,-38,2079,74,25,-189
427,435,30,-37,2060,75,26,-192
428,436,19,-35,2058,74,29,-194
429,437,13,-34,2072,71,26,-192
430,438,8,-53,2051,70,21,-188
431,439,11,-40,2060,71,22,-192
432,440,8,-32,2054,73,22,-200
433,441,6,-37,2055,70,23,-204
434,442,8,-22,2071,69,20,-207
435,443,11,-27,2051,69,19,-211
436,444,15,-34,2058,71,19,-215
437,445,15,-40,2050,72,13,-215
438,446,0,-34,2064,77,9,-217
439,447,-7,-40,2076,77,11,-219
440,448,-7,-40,2055,75,12,-216
441,449,-2,-34,2077,73,16,-207
442,450,6,-30,2070,75,13,-212
443,451,-4,-23,2064,78,9,-212
444,452,-12,-26,2044,79,6,-207
445,453,-17,-24,2055,77,11,-200
446,454,-26,-21,2054,72,12,-196
447,455,-15,-27,2056,72,11,-191
448,455,1,-10,2060,72,13,-185
449,456,-4,-13,2046,75,8,-181
450,457,-10,-3,2050,80,7,-179
451,458,-12,-23,2055,84,6,-176
452,459,-7,-15,2047,82,2,-173
453,460,-22,-10,2037,73,-2,-171
454,461,-25,-21,2035,73,-9,-166
455,462,-17,-8,2057,81,-8,-157
456,463,-13,-5,2058,84,-2,-151
457,464,-3,6,2052,79,-2,-143
458,465,-2,15,2054,76,-4,-133
459,466,0,11,2065,79,-10,-133
460,467,-6,9,2054,76,-13,-126
461,468,-18,12,2057,72,-10,-116
462,470,-16,11,2060,75,-1,-108
463,471,-11,8,2063,76,-6,-101
464,472,5,7,2050,75,-14,-96
465,473,5,9,2029,78,-16,-94
466,474,11,8,2048,75,-16,-87
467,475,12,-4,2062,74,-10,-76
468,476,10,-1,2053,76,-8,-76
469,477,11,11,2058,74,-10,-75
470,478,16,11,2042,75,-10,-69
471,479,25,6,2027,73,-10,-62
472,480,33,5,2049,74,-13,-57
473,481,33,3,2040,76,-16,-50
474,482,32,18,2049,76,-16,-45
475,483,31,19,2051,78,-13,-42
476,484,35,17,2059,76,-5,-41
477,485,22,24,2047,72,-5,-37
478,486,34,21,2059,68,-9,-35
479,487,27,19,2060,72,-6,-28
480,488,23,23,2046,77,-7,-17
481,489,23,17,2048,74,-14,-10
482,490,22,13,2063,73,-8,-13
483,491,21,17,2071,77,-3,-10
484,492,24,22,2064,82,-8,-3
485,493,20,22,2068,80,-10,1
486,494,5,29,2064,80,-15,8
487,495,8,21,2040,76,-13,17
488,496,6,33,2054,73,-13,28
489,497,3,34,2065,73,-12,34
490,497,-3,44,2063,72,-16,32
491,498,-8,36,2074,73,-17,35
492,499,-10,42,2057,76,-18,36
493,500,-8,23,2052,72,-19,39
494,501,-4,26,2046,68,-22,37
495,502,6,35,2056,67,-25,34
496,503,12,35,2052,70,-24,37
497,504,10,38,2056,69,-26,40
498,505,23,29,2060,66,-27,36
499,506,18,35,2077,63,-28,33
500,507,14,42,2050,66,-22,25
501,508,8,45,2051,65,-22,26
502,509,11,35,2043,65,-20,30
503,510,17,42,2057,66,-26,31
504,512,31,42,2049,65,-27,25
505,513,24,29,2058,67,-27,22
506,514,35,33,2042,70,-33,20
507,515,28,27,2040,62,-34,21
508,516,29,37,2059,60,-32,15
509,517,31,41,2061,63,-32,17
510,518,39,39,2070,65,-28,17
511,519,44,23,2057,63,-34,12
512,520,36,25,2048,64,-35,7
513,521,31,33,2037,64,-34,5
514,522,39,30,2053,65,-32,5
515,523,37,32,2055,62,-39,-4
516,524,30,41,2065,58,-43,-10
517,525,27,44,2063,57,-44,-13
518,526,30,34,2049,54,-41,-13
519,527,37,26,2049,58,-42,-15
520,528,37,35,2070,59,-44,-25
521,529,33,32,2069,57,-44,-32
522,530,49,44,2057,52,-46,-38
523,531,34,59,2053,53,-49,-38
524,532,41,37,2073,53,-42,-36
525,533,38,37,2069,55,-46,-40
526,534,34,41,2046,56,-48,-49
527,535,30,39,2057,58,-42,-54
528,536,23,45,2049,57,-42,-55
529,537,39,48,2061,56,-40,-54
530,538,32,46,2066,54,-42,-60
531,539,13,46,2051,50,-41,-59
532,539,20,61,2041,51,-38,-59
533,540,37,57,2042,49,-41,-61
534,541,21,47,2060,50,-47,-59
535,542,21,54,2057,51,-51,-56
536,543,26,41,2052,49,-53,-60
537,544,25,54,2048,50,-47,-62
538,545,33,56,2032,49,-42,-59
539,546,22,59,2058,51,-50,-58
540,547,11,54,2053,49,-52,-54
541,548,4,52,2058,43,-53,-48
542,549,12,61,2063,39,-54,-43
543,550,18,53,2051,38,-58,-41
544,551,13,52,2036,41,-61,-33
545,552,16,52,2053,42,-60,-20
546,554,0,60,2039,41,-59,-13
547,555,2,56,2059,45,-60,-8
548,556,13,54,2065,41,-58,2
549,557,17,50,2054,38,-55,11
550,558,18,58,2038,35,-56,26
551,559,16,67,2064,31,-58,37
552,560,21,57,2073,32,-59,41
553,561,9,55,2073,36,-64,46
554,562,6,63,2058,36,-60,55
555,563,2,70,2055,36,-54,62
556,564,10,68,2084,31,-60,73
557,565,8,70,2057,32,-62,75
558,566,24,67,2054,27,-60,81
559,567,20,74,2064,25,-62,88
560,568,18,48,2059,27,-61,95
561,569,36,49,2055,25,-57,105
562,570,26,57,2053,21,-62,113
563,571,19,61,2047,22,-61,124
564,572,30,63,2057,24,-61,133
565,573,27,56,2047,24,-63,138
566,574,26,65,2043,21,-60,143
567,575,24,57,2052,19,-62,151
568,576,36,52,2060,21,-62,156
569,577,36,39,2060,21,-61,165
570,578,39,50,2060,21,-60,169
571,579,47,56,2052,18,-60,173
572,580,42,58,2060,12,-60,182
573,581,41,56,2038,15,-62,189
574,581,39,36,2028,17,-61,198
575,582,52,47,2033,16,-62,203
576,583,50,44,2038,17,-57,207
577,584,54,38,2040,15,-61,212
578,585,56,46,2045,20,-64,214
579,586,52,40,2051,20,-61,219
580,587,58,52,2057,16,-56,224
581,588,54,61,2052,15,-52,228
582,589,49,69,2058,11,-52,229
583,590,54,55,2064,10,-59,236
584,591,48,40,2065,8,-60,239
585,592,54,44,2053,11,-59,238
586,593,55,41,2055,8,-55,239
587,594,52,60,2058,5,-52,240
588,596,50,59,2034,7,-54,243
589,597,49,43,2041,6,-56,245
590,598,35,54,2033,4,-56,247
591,599,34,43,2043,2,-59,254
592,600,42,48,2059,3,-62,255
593,601,38,35,2051,6,-60,257
594,602,36,40,2052,5,-56,255
595,603,41,59,2042,1,-60,261
596,604,33,48,2036,0,-61,270
597,605,33,44,2038,2,-59,273
598,606,43,46,2043,6,-61,279
599,607,44,48,2042,3,-63,283
600,608,47,42,2041,1,-62,292
601,609,33,57,2042,2,-62,292
602,610,24,61,2050,1,-64,293
603,611,22,58,2059,-2,-66,292
604,612,18,54,2059,-5,-65,297
605,613,23,52,2039,-4,-61,305
606,614,35,58,2043,-6,-65,304
607,615,39,65,2046,-4,-69,310
608,616,41,58,2047,-4,-66,316
609,617,49,54,2048,-1,-67,322
610,618,67,44,2067,-2,-66,322
611,619,64,48,2060,-9,-66,320
612,620,64,50,2045,-12,-71,328
613,621,73,52,2044,-17,-70,334
614,622,67,46,2053,-15,-67,338
615,623,71,32,2075,-12,-67,347
616,624,85,34,2061,-13,-69,352
617,625,70,35,2042,-12,-70,349
618,626,68,41,2050,-14,-69,348
619,627,87,44,2063,-12,-68,354
620,628,87,36,2050,-19,-63,360
621,629,85,27,2050,-19,-63,367
622,630,96,29,2059,-16,-62,366
623,631,120,40,2059,-12,-64,368
624,632,118,29,2045,-12,-64,371
625,633,115,35,2046,-16,-60,374
626,634,118,31,2063,-17,-52,377
627,635,129,40,2042,-15,-56,380
628,636,122,29,2041,-16,-54,379
629,637,132,13,2054,-16,-53,382
630,637,127,19,2044,-16,-57,386
631,638,132,20,2052,-14,-54,383
632,639,128,16,2050,-15,-55,382
633,640,132,25,2068,-17,-51,383
634,641,138,23,2042,-19,-49,385
635,642,139,21,2031,-17,-47,389
636,643,135,16,2045,-15,-38,389
637,644,133,27,2052,-18,-35,390
638,645,143,23,2055,-20,-42,394
639,646,138,29,2045,-21,-46,399
640,647,125,28,2049,-17,-43,396
641,648,128,23,2052,-20,-39,399
642,649,119,15,2053,-22,-37,402
643,650,120,24,2048,-22,-37,402
644,654,113,36,2059,-22,-38,406
645,655,105,39,2049,-22,-35,405
646,656,109,36,2055,-22,-28,404
647,657,95,32,2046,-20,-31,408
648,658,107,34,2061,-22,-35,411
649,659,95,38,2057,-22,-35,412
650,660,81,33,2071,-24,-37,414
651,661,70,24,2076,-25,-29,417
652,662,72,29,2073,-28,-28,414
653,663,81,31,2050,-28,-32,411
654,664,89,27,2041,-24,-35,409
655,665,87,34,2055,-25,-37,413
656,666,81,30,2070,-27,-35,420
657,667,79,23,2055,-29,-30,420
658,666,77,32,2064,-23,-28,413
659,667,69,31,2056,-25,-33,414
660,668,68,18,2054,-30,-37,418
661,669,65,14,2054,-31,-38,419
662,670,71,35,2048,-31,-36,417
663,671,79,33,2050,-30,-36,413
664,672,78,24,2048,-28,-34,413
665,673,71,22,2058,-28,-35,412
666,674,81,23,2054,-31,-35,413
667,675,89,28,2056,-35,-38,415
668,676,81,28,2058,-33,-34,412
669,677,81,15,2055,-32,-35,408
670,678,90,4,2034,-35,-38,407
671,679,87,9,2054,-34,-38,410
672,679,83,3,2038,-33,-41,415
673,680,89,8,2044,-29,-41,413
674,681,108,12,2051,-32,-39,405
675,682,102,2,2070,-34,-39,402
676,683,97,-10,2048,-31,-34,400
677,684,101,-14,2046,-29,-31,398
678,685,102,-4,2051,-29,-31,395
679,686,106,-2,2056,-31,-34,392
680,687,116,-6,2056,-30,-40,386
681,688,118,-6,2050,-32,-42,385
682,689,112,-13,2045,-33,-38,384
683,690,115,-9,2046,-34,-34,380
684,691,121,-6,2032,-32,-30,372
685,692,135,-10,2057,-32,-25,371
686,694,135,-8,2049,-30,-27,369
687,695,151,-16,2053,-32,-29,358
688,696,154,-17,2046,-32,-28,352
689,697,156,-11,2051,-35,-32,350
690,698,148,-22,2074,-32,-29,344
691,699,140,-14,2077,-27,-22,339
692,700,143,-21,2042,-30,-21,339
693,701,141,-17,2038,-29,-22,340
694,702,143,-20,2052,-28,-19,339
695,703,149,1,2057,-28,-21,333
696,704,149,-7,2051,-25,-23,331
697,705,144,-10,2055,-27,-23,330
698,706,132,-15,2057,-28,-18,325
699,707,134,-12,2056,-26,-13,322
700,708,128,-19,2057,-26,-16,325
701,709,131,6,2057,-25,-22,330
702,710,135,-10,2069,-24,-21,332
703,711,136,4,2063,-26,-20,330
704,712,138,-8,2063,-26,-13,328
705,713,131,0,2043,-23,-8,325
706,714,123,3,2047,-23,-5,323
707,715,122,13,2056,-25,-8,325
708,716,110,4,2061,-25,-8,324
709,717,113,0,2056,-27,-4,325
710,718,120,15,2056,-29,-2,324
711,719,126,8,2056,-25,-4,323
712,720,124,5,2048,-25,-4,322
713,721,115,7,2040,-26,2,325
714,721,106,3,2054,-26,5,327
715,722,94,-5,2045,-29,-1,323
716,723,107,2,2051,-31,-6,322
717,724,114,2,2046,-29,-6,320
718,725,117,0,2021,-28,2,321
719,726,108,-13,2045,-24,5,325
720,727,112,-12,2055,-24,8,328
721,728,100,-12,2060,-25,5,332
722,729,95,-6,2047,-27,4,325
723,730,88,6,2055,-27,2,320
724,731,93,-1,2047,-26,1,322
725,732,92,2,2047,-31,3,326
726,733,96,-8,2046,-26,4,331
727,734,110,-12,2051,-25,6,333
728,736,104,-8,2050,-25,4,334
729,737,89,-5,2060,-26,2,334
730,738,83,-13,2057,-26,1,331
731,739,87,-4,2060,-28,4,323
732,740,87,-15,2058,-27,5,327
733,741,88,-16,2059,-24,3,332
734,742,87,-8,2057,-26,2,332
735,743,94,0,2062,-25,-1,334
736,744,100,-8,2050,-24,1,335
737,745,100,-5,2030,-21,0,329
738,746,96,-8,2042,-20,1,328
739,747,91,-14,2052,-24,4,334
740,748,95,-8,2053,-24,4,334
741,749,88,-6,2049,-17,-4,331
742,749,90,-4,2065,-19,-5,326
743,750,96,-11,2067,-18,-4,324
744,751,85,2,2063,-19,0,324
745,752,77,3,2062,-23,2,320
746,753,83,-6,2068,-19,-1,316
747,754,87,-18,2061,-19,1,313
748,755,74,-15,2064,-23,4,308
749,756,84,-19,2061,-22,3,299
750,757,85,-23,2063,-22,5,293
751,758,90,-29,2049,-23,6,285
752,759,104,-25,2057,-24,6,280
753,760,92,-27,2058,-26,-2,277
754,761,72,-29,2042,-22,1,269
755,762,99,-32,2048,-22,6,260
756,763,103,-31,2052,-18,8,254
757,764,101,-22,2067,-15,2,251
758,765,101,-21,2042,-14,5,242
759,766,99,-30,2058,-12,8,233
760,767,106,-43,2070,-12,7,225
761,768,110,-41,2062,-11,9,218
762,769,112,-43,2070,-13,11,212
763,770,116,-22,2067,-17,9,209
764,771,116,-28,2063,-17,9,198
765,772,121,-34,2065,-12,9,191
766,773,118,-35,2048,-9,7,184
767,774,120,-35,2067,-11,12,177
768,775,124,-48,2052,-12,15,170
769,776,113,-32,2059,-9,10,167
770,778,103,-41,2056,-9,6,162
771,779,111,-41,2059,-11,1,155
772,780,106,-39,2059,-10,1,149
773,781,104,-20,2072,-11,1,141
774,782,104,-32,2050,-13,3,138
775,783,112,-37,2048,-15,4,132
776,784,109,-50,2068,-12,1,127
777,785,94,-31,2050,-10,0,121
778,786,97,-29,2050,-12,4,116
779,787,86,-33,2048,-12,5,117
780,788,78,-29,2060,-9,-2,110
781,789,80,-34,2064,-7,2,105
782,790,83,-46,2066,-3,11,102
783,791,100,-26,2053,-3,10,97
784,791,94,-31,2050,-4,8,96
785,792,86,-28,2043,-3,9,95
786,793,81,-31,2060,-3,12,91
787,794,85,-32,2058,3,15,85
788,795,89,-41,2045,3,17,83
789,796,69,-43,2037,-2,15,79
790,797,59,-44,2042,0,12,76
791,798,78,-45,2046,1,10,77
792,799,92,-39,2048,-4,13,73
793,800,80,-32,2071,-3,12,70
794,801,77,-39,2077,0,8,70
795,802,73,-38,2052,1,4,70
796,803,89,-33,2050,4,6,65
797,804,85,-30,2057,7,8,64
798,805,85,-38,2065,2,6,61
799,806,93,-32,2059,2,10,63
800,807,87,-44,2044,0,10,65
801,808,80,-33,2055,0,7,62
802,809,72,-33,2067,4,4,61
803,810,81,-55,2061,6,5,62
804,811,87,-39,2077,5,8,63
805,812,85,-50,2083,7,7,60
806,813,67,-42,2049,10,9,57
807,814,67,-41,2044,10,4,57
808,815,77,-37,2053,11,2,54
809,816,76,-41,2057,13,8,54
810,817,71,-33,2048,14,10,56
811,818,78,-36,2037,14,10,56
812,820,78,-30,2038,17,10,52
813,821,81,-28,2055,14,7,48
814,822,84,-31,2060,13,3,48
815,823,90,-34,2062,10,3,46
816,824,81,-30,2061,15,11,48
817,825,90,-20,2059,13,14,46
818,826,88,-12,2058,10,9,40
819,827,88,-21,2053,10,6,38
820,828,104,-20,2046,11,11,37
821,829,106,-21,2067,12,6,38
822,830,93,-7,2053,10,2,36
823,831,98,-16,2046,16,7,31
824,832,94,-29,2043,16,15,28
825,833,95,-34,2052,18,18,23
826,833,94,-34,2055,16,12,18
827,834,102,-36,2055,15,11,19
828,835,118,-40,2072,17,8,16
829,836,116,-37,2056,14,7,10
830,837,128,-20,2067,17,10,4
831,838,119,-39,2056,21,11,2
832,839,103,-32,2059,22,15,-4
833,840,100,-21,2056,20,13,-10
834,841,94,-20,2081,17,12,-15
835,842,98,-16,2059,14,12,-17
836,843,91,-8,2066,21,9,-21
837,844,93,-8,2053,25,12,-28
838,845,86,-9,2049,18,15,-35
839,846,92,0,2059,17,13,-39
840,847,84,-9,2071,22,18,-43
841,848,88,-12,2058,24,17,-46
842,849,91,-6,2065,22,7,-51
843,850,88,-2,2058,18,2,-55
844,851,81,-14,2060,15,7,-58
845,852,95,-10,2049,16,13,-60
846,853,83,-16,2069,18,16,-64
847,854,68,-16,2052,19,16,-69
848,855,60,-15,2046,19,7,-68
849,856,68,-16,2049,19,4,-73
850,857,77,-14,2044,19,9,-79
851,858,81,-12,2039,14,11,-76
852,859,69,-18,2046,16,11,-75
853,860,68,-12,2063,20,6,-76
854,862,59,-9,2044,21,6,-76
855,863,55,-11,2037,21,6,-76
856,864,57,-12,2039,21,11,-73
857,865,59,-18,2049,25,14,-74
858,866,52,-7,2057,27,9,-74
859,867,50,-9,2054,26,11,-75
860,868,60,-10,2051,22,4,-69
861,869,51,-19,2069,21,2,-65
862,870,49,-17,2060,22,5,-64
863,871,47,-17,2058,23,8,-64
864,872,36,-19,2060,27,3,-63
865,873,34,-11,2059,22,4,-64
866,874,44,-10,2054,19,3,-60
867,875,53,-17,2063,18,3,-57
868,876,47,-4,2059,21,6,-54
869,877,53,-7,2065,24,7,-52
870,878,58,-24,2074,21,12,-55
871,879,56,-28,2054,18,9,-54
872,880,70,-28,2065,20,6,-52
873,881,67,-27,2075,22,4,-50
874,882,62,-33,2071,24,4,-51
875,883,71,-17,2071,25,9,-54
876,884,80,-27,2062,26,5,-54
877,885,85,-25,2068,26,-1,-54
878,886,76,-40,2066,27,0,-56
879,887,82,-40,2068,28,6,-53
880,888,79,-39,2067,26,6,-52
881,889,85,-35,2055,26,10,-50
882,889,80,-42,2046,24,11,-48
883,890,85,-35,2070,24,6,-44
884,891,80,-43,2077,22,8,-48
885,892,90,-46,2064,23,10,-46
886,893,88,-43,2054,26,7,-42
887,894,80,-42,2055,30,3,-36
888,895,88,-26,2046,27,9,-34
889,896,77,-26,2046,26,13,-30
890,897,75,-37,2051,27,12,-27
891,898,89,-43,2053,29,12,-26
892,899,85,-34,2047,32,14,-25
893,900,69,-26,2056,32,14,-21
894,901,83,-37,2063,30,7,-16
895,902,72,-29,2052,31,3,-15
896,904,75,-29,2056,35,6,-11
897,905,70,-18,2052,38,12,-9
898,906,60,-22,2057,42,15,-3
899,907,66,-22,2059,40,11,1
900,908,58,-16,2053,42,6,1
901,909,68,-9,2052,43,8,3
902,910,75,-12,2050,47,14,7
903,911,72,-21,2060,46,12,6
904,912,70,-12,2070,43,10,6
905,913,70,-12,2061,41,8,5
906,914,76,-11,2062,43,11,8
907,915,65,-7,2061,40,16,8
908,916,65,7,2064,39,18,3
909,917,58,-3,2055,39,18,-1
910,918,53,13,2052,38,12,-1
911,919,56,11,2051,38,7,1
912,920,56,15,2051,36,7,4
913,921,73,5,2043,34,11,-1
914,922,66,5,2021,37,10,-6
915,923,72,-4,2042,40,11,-1
916,924,65,5,2044,41,15,4
917,925,67,1,2067,38,14,3
918,926,65,5,2059,37,8,7
919,927,64,8,2044,37,5,10
920,928,68,-5,2028,36,7,17
921,929,65,9,2047,40,10,18
922,930,72,-2,2054,42,15,21
923,931,62,6,2051,39,15,24
924,931,73,-1,2051,34,11,26
925,932,72,5,2041,36,9,25
926,933,62,9,2041,37,12,26
927,934,54,19,2046,37,11,29
928,935,77,17,2057,39,7,34
929,936,69,14,2053,38,5,31
930,937,78,15,2055,36,1,26
931,938,81,4,2043,34,-3,23
932,939,79,8,2035,35,-6,20
933,940,86,15,2046,39,0,17
934,941,72,13,2043,40,7,14
935,942,66,15,2039,36,7,10
936,943,68,18,2047,35,10,8
937,944,59,16,2045,35,8,9
938,946,62,18,2053,37,4,6
939,947,72,7,2052,36,4,3
940,948,71,5,2060,39,12,0
941,949,74,15,2056,39,15,-3
942,950,63,12,2059,38,13,-3
943,951,63,17,2058,37,16,-6
944,952,59,3,2055,37,13,-9
945,953,58,2,2063,36,12,-12
946,954,62,1,2039,35,14,-12
947,955,57,-1,2046,35,7,-9
948,956,48,5,2059,39,4,-10
949,957,48,19,2059,38,8,-13
950,958,41,11,2039,32,7,-10
951,959,55,18,2056,28,5,-6
952,960,52,9,2055,32,6,-8
953,961,53,10,2047,33,6,-9
954,962,52,20,2036,31,8,-8
955,963,44,4,2052,35,9,-5
956,964,37,18,2049,38,6,-5
957,965,43,4,2054,40,4,-7
958,966,59,12,2054,37,2,-14
959,967,44,16,2064,32,0,-18
960,968,44,7,2065,30,-2,-21
961,969,45,5,2077,30,-1,-18
962,970,36,-3,2067,32,-3,-14
963,971,39,18,2075,31,-3,-20
964,972,31,11,2044,31,-4,-27
965,973,29,0,2055,31,-6,-27
966,973,30,-9,2053,33,-3,-28
967,974,28,10,2062,32,-5,-29
968,975,41,3,2058,31,-1,-38
969,976,50,3,2058,30,3,-46
970,977,53,3,2051,28,2,-49
971,978,42,0,2047,32,-2,-48
972,979,35,-13,2047,31,-7,-46
973,980,52,-7,2060,29,-6,-46
974,981,47,-4,2069,28,-5,-49
975,982,45,-1,2059,31,-9,-52
976,983,50,2,2058,33,-2,-51
977,984,55,-7,2048,33,-1,-48
978,985,57,-8,2052,33,-7,-45
979,986,53,-8,2061,33,-10,-42
980,988,50,1,2050,31,-9,-40
981,989,46,-5,2052,35,-10,-38
982,990,58,-6,2052,35,-10,-35
983,991,71,1,2036,30,-13,-35
984,992,73,-8,2072,31,-13,-36
985,993,64,-5,2057,32,-12,-36
986,994,61,10,2054,29,-8,-27
987,995,64,6,2056,28,-7,-22
988,996,63,4,2050,31,-7,-18
989,997,74,10,2030,35,-12,-12
990,998,71,-14,2043,35,-12,-12
991,999,68,8,2054,33,-10,-10
992,1000,67,-6,2058,33,-9,0
993,1001,70,7,2050,32,-5,7
994,1001,80,6,2047,37,-3,9
995,1002,86,14,2059,34,-5,13
996,1003,83,12,2070,34,-8,19
997,1004,79,19,2071,32,-5,25
998,1005,81,15,2053,32,-5,31
999,1006,80,1,2045,31,-2,37
1000,1007,89,14,2044,32,1,44
1001,1008,75,14,2058,33,-1,49
1002,1009,74,20,2043,32,-4,53
1003,1010,92,7,2043,30,-5,55
1004,1011,95,7,2047,29,-2,60
1005,1012,93,11,2050,31,6,69
1006,1013,82,25,2051,32,8,78
1007,1014,77,3,2054,28,6,82
1008,1015,81,5,2044,26,10,79
1009,1016,93,20,2047,32,10,84
1010,1017,83,10,2055,31,8,96
1011,1018,93,18,2073,32,10,103
1012,1019,103,18,2064,27,11,107
1013,1020,99,19,2062,30,9,112
1014,1021,95,24,2040,30,10,121
1015,1022,83,26,2045,30,8,132
1016,1023,73,22,2058,27,7,134
1017,1024,65,23,2051,25,8,137
1018,1025,73,30,2036,32,9,146
1019,1026,70,19,2050,31,6,149
1020,1027,68,39,2058,28,5,155
1021,1028,48,35,2063,27,1,163
1022,1030,53,31,2051,25,4,170
1023,1031,51,37,2056,25,2,167
1024,1032,59,35,2062,21,6,172
1025,1033,58,43,2053,22,6,179
1026,1034,59,37,2068,23,4,178
1027,1035,54,64,2064,23,3,180
1028,1036,55,62,2063,24,3,178
1029,1037,56,48,2053,23,7,170
1030,1038,53,54,2057,21,6,169
1031,1039,60,58,2048,17,4,171
1032,1040,69,47,2052,16,5,172
1033,1041,58,46,2053,18,4,166
1034,1042,57,45,2060,15,5,158
1035,1043,42,51,2065,16,5,151
1036,1043,49,54,2062,13,6,155
1037,1044,54,44,2041,12,1,155
1038,1045,52,56,2049,14,0,149
1039,1046,53,54,2052,18,4,139
1040,1047,45,49,2054,11,5,133
1041,1048,42,51,2051,7,6,135
1042,1049,50,34,2060,7,6,137
1043,1050,61,37,2051,8,3,130
1044,1051,69,37,2048,8,3,126
1045,1052,61,38,2064,8,-1,128
1046,1053,58,40,2048,7,-2,128
1047,1054,65,38,2044,9,3,124
1048,1055,64,53,2053,9,5,124
1049,1056,58,51,2053,11,4,121
1050,1057,71,48,2053,12,3,124
1051,1058,66,36,2057,10,2,119
1052,1059,76,31,2047,7,-1,118
1053,1060,91,39,2040,5,-3,116
1054,1061,82,20,2044,7,0,111
1055,1062,84,17,2051,10,1,112
1056,1063,83,26,2046,6,4,111
1057,1064,83,24,2050,3,6,109
1058,1065,87,42,2061,1,0,106
1059,1066,85,21,2054,0,0,105
1060,1067,98,26,2065,5,6,110
1061,1068,104,20,2047,5,6,113
1062,1069,89,29,2051,2,5,110
1063,1070,87,26,2043,-2,-1,104
1064,1072,81,24,2064,-7,-3,108
1065,1073,84,26,2052,-6,-6,108
1066,1074,86,17,2042,-1,-3,105
1067,1075,83,26,2039,-3,-1,110
1068,1076,76,30,2043,-3,1,113
1069,1077,91,26,2049,-4,-2,117
1070,1078,79,14,2054,-1,-6,124
1071,1079,67,12,2066,-2,-10,126
1072,1080,68,24,2061,2,-2,132
1073,1081,60,19,2048,4,7,137
1074,1082,61,14,2062,-1,2,144
1075,1083,65,17,2068,2,-3,145
1076,1084,58,26,2065,1,-3,149
1077,1085,59,17,2055,0,4,156
1078,1085,54,28,2056,2,8,158
1079,1086,52,34,2054,2,2,168
1080,1087,39,27,2056,1,1,172
1081,1088,42,9,2052,-4,1,175
1082,1089,41,22,2052,-5,-2,179
1083,1090,59,29,2037,-3,-5,182
1084,1091,64,23,2040,2,0,189
1085,1092,66,23,2045,0,-3,196
1086,1093,66,16,2052,-2,1,198
1087,1094,65,15,2044,-1,4,200
1088,1095,65,23,2045,-2,2,203
1089,1096,52,23,2054,-3,2,215
1090,1097,66,30,2041,-3,5,224
1091,1098,74,24,2052,-5,8,226
1092,1099,74,7,2045,-4,9,226
1093,1100,71,0,2062,-3,6,231
1094,1101,70,20,2061,-1,1,235
1095,1102,77,15,2052,-3,4,244
1096,1103,77,8,2046,-6,5,249
1097,1104,78,6,2043,-6,10,253
1098,1105,88,8,2044,-8,15,255
1099,1106,98,5,2054,-3,14,257
1100,1107,101,7,2050,-2,12,260
1101,1108,101,1,2055,-2,10,260
1102,1109,91,0,2053,-1,12,266
1103,1110,101,5,2051,-4,13,271
1104,1111,119,7,2068,-3,13,275
1105,1112,106,17,2049,-4,10,273
1106,1114,111,10,2063,-4,10,269
1107,1115,114,-7,2056,-5,13,269
1108,1116,113,7,2058,-8,16,269
1109,1117,117,11,2054,-7,20,271
1110,1118,114,2,2051,-3,9,274
1111,1119,112,9,2070,-12,11,275
1112,1120,115,6,2073,-14,9,268
1113,1121,116,10,2041,-9,10,263
1114,1122,117,18,2068,-6,13,262
1115,1123,109,-5,2071,-9,14,257
1116,1124,103,17,2061,-10,13,256
1117,1125,100,18,2045,-5,15,254
1118,1126,92,12,2050,3,20,254
1119,1127,91,15,2051,-2,25,254
1120,1127,91,34,2051,-10,21,251
1121,1128,94,24,2043,-12,21,243
1122,1129,93,16,2059,-8,23,240
1123,1130,89,22,2056,-6,23,238
1124,1131,87,21,2045,-10,24,234
1125,1132,79,38,2053,-10,23,231
1126,1133,73,33,2053,-8,18,223
1127,1134,67,27,2056,-5,14,217
1128,1135,73,33,2050,-5,21,212
1129,1136,66,32,2059,-7,27,208
1130,1137,60,39,2056,-10,28,206
1131,1138,60,48,2031,-10,27,200
1132,1139,53,45,2052,-9,24,195
1133,1140,45,38,2070,-9,20,190
1134,1141,44,48,2064,-11,20,188
1135,1142,45,31,2060,-15,18,181
1136,1143,48,38,2053,-16,17,175
1137,1144,47,36,2060,-15,13,174
1138,1145,43,40,2042,-16,14,167
1139,1146,30,45,2052,-17,17,163
1140,1147,42,42,2039,-17,17,163
1141,1148,54,31,2021,-15,17,159
1142,1149,38,40,2035,-17,19,155
1143,1150,51,37,2062,-20,17,144
1144,1151,57,39,2050,-20,16,136
1145,1152,46,32,2041,-22,13,132
1146,1153,76,23,2050,-22,6,128
1147,1154,78,28,2058,-23,4,125
1148,1156,76,28,2052,-26,7,117
1149,1157,79,38,2046,-25,4,106
1150,1158,56,22,2057,-20,0,100
1151,1159,57,25,2056,-18,-1,93
1152,1160,58,30,2051,-22,1,89
1153,1161,62,22,2048,-26,6,86
1154,1162,75,18,2060,-29,2,77
1155,1163,75,8,2056,-25,-4,68
1156,1164,82,4,2065,-19,-3,66
1157,1165,81,13,2068,-18,-1,63
1158,1166,95,15,2056,-25,-2,54
1159,1167,90,11,2055,-29,1,48
1160,1168,96,21,2062,-22,-1,41
1161,1169,77,11,2038,-19,-3,39
1162,1170,88,5,2048,-19,0,35
1163,1171,94,1,2045,-24,3,27
1164,1172,105,-2,2048,-28,-1,24
1165,1173,97,-10,2047,-28,-2,27
1166,1174,100,1,2065,-27,5,26
1167,1175,99,4,2051,-26,6,26
1168,1176,107,-5,2041,-28,2,28
1169,1177,113,-9,2047,-26,-1,30
1170,1178,107,-22,2049,-23,3,26
1171,1179,112,-24,2067,-21,6,28
1172,1180,111,-16,2067,-20,9,32
1173,1181,115,-18,2061,-22,10,39
1174,1182,118,-22,2059,-22,15,40
1175,1183,115,-18,2055,-18,17,45
1176,1183,108,-17,2048,-18,15,52
1177,1184,99,-11,2053,-21,9,58
1178,1185,100,-17,2053,-23,11,60
1179,1186,99,-17,2060,-24,8,64
1180,1187,99,-20,2048,-25,15,70
1181,1188,100,-13,2053,-27,20,73
1182,1189,91,-15,2052,-24,23,78
1183,1190,89,-15,2063,-20,19,84
1184,1191,88,-21,2062,-22,15,90
1185,1192,83,-13,2060,-23,18,98
1186,1193,81,-19,2050,-22,19,106
1187,1194,76,-19,2061,-18,22,111
1188,1195,76,-18,2059,-15,21,113
1189,1196,86,-18,2055,-14,16,111
1190,1198,86,-15,2030,-16,18,115
1191,1199,80,-16,2034,-20,16,120
1192,1200,81,-10,2041,-19,18,123
1193,1201,80,-18,2039,-21,22,125
1194,1202,93,-21,2050,-20,27,128
1195,1203,86,-16,2062,-23,27,128
1196,1204,83,-2,2067,-21,20,130
1197,1205,87,-4,2069,-17,15,129
1198,1206,81,4,2061,-15,16,126
1199,1207,71,-9,2054,-16,26,125
1200,1208,89,-13,2063,-15,31,123
1201,1209,91,-14,2058,-19,31,119
1202,1210,90,-5,2059,-14,27,121
1203,1211,85,-13,2058,-17,24,119
1204,1212,96,-1,2062,-16,20,118
1205,1213,96,-5,2049,-18,18,116
1206,1214,92,8,2063,-17,17,107
1207,1215,94,5,2046,-13,20,97
1208,1216,94,13,2051,-15,27,93
1209,1217,96,0,2044,-20,29,91
1210,1218,112,-1,2054,-20,22,91
1211,1219,107,12,2056,-18,23,88
1212,1220,115,2,2055,-15,26,80
1213,1221,103,-9,2058,-18,28,68
1214,1222,110,-4,2056,-20,25,64
1215,1223,107,6,2054,-20,21,63
1216,1224,112,4,2059,-14,15,56
1217,1225,107,6,2064,-9,14,48
1218,1225,103,3,2053,-11,19,38
1219,1226,108,2,2055,-13,26,33
1220,1227,120,-1,2048,-15,28,28
1221,1228,119,-1,2060,-17,24,20
1222,1229,122,15,2044,-19,31,13
1223,1230,125,16,2057,-15,30,13
1224,1231,106,16,2066,-19,30,6
1225,1232,94,30,2071,-19,32,-3
1226,1233,89,43,2059,-19,29,-9
1227,1234,96,22,2063,-19,29,-14
1228,1235,97,33,2053,-22,29,-18
1229,1236,100,39,2061,-21,31,-25
1230,1237,74,44,2055,-20,33,-32
1231,1238,71,47,2056,-24,35,-39
1232,1240,65,41,2059,-23,31,-39
1233,1241,69,41,2065,-26,30,-38
1234,1242,51,39,2056,-27,29,-40
1235,1243,53,50,2054,-31,29,-45
1236,1244,59,49,2046,-30,26,-50
1237,1245,44,41,2041,-29,26,-44
1238,1246,39,49,2038,-28,28,-35
1239,1247,35,57,2041,-26,31,-34
1240,1248,21,58,2048,-29,33,-32
1241,1249,19,49,2051,-26,29,-25
1242,1250,28,58,2060,-28,25,-21
1243,1251,30,62,2046,-34,20,-18
1244,1252,19,49,2071,-33,25,-12
1245,1253,37,55,2086,-32,28,-8
1246,1254,28,44,2083,-36,25,1
1247,1255,17,46,2068,-37,20,5
1248,1256,35,48,2045,-37,25,7
1249,1257,34,46,2061,-37,24,10
1250,1258,48,35,2055,-40,23,15
1251,1259,44,15,2059,-42,19,21
1252,1260,57,13,2059,-42,15,26
1253,1261,64,15,2048,-39,13,31
1254,1262,73,22,2060,-34,13,35
1255,1263,77,21,2043,-38,17,38
1256,1264,81,9,2065,-39,24,39
1257,1265,93,-14,2059,-38,24,45
1258,1266,83,-22,2038,-39,21,51
1259,1267,107,-14,2047,-42,24,55
1260,1267,103,-22,2052,-42,23,58
1261,1268,105,-14,2045,-39,23,63
1262,1269,115,-18,2042,-37,23,61
1263,1270,121,-9,2046,-40,22,64
1264,1271,128,-24,2054,-43,21,64
1265,1272,132,-21,2069,-37,27,62
1266,1273,123,-37,2047,-32,27,61
1267,1274,125,-36,2043,-31,28,55
1268,1275,128,-37,2038,-32,29,51
1269,1276,113,-32,2065,-35,32,50
1270,1277,118,-37,2049,-37,30,44
1271,1278,115,-28,2050,-35,28,38
1272,1279,120,-31,2037,-35,30,36
1273,1280,111,-53,2057,-33,36,28
1274,1282,102,-51,2073,-30,36,21
1275,1283,110,-31,2076,-29,31,10
1276,1284,108,-33,2053,-32,32,2
1277,1285,99,-38,2061,-32,34,-2
1278,1286,95,-38,2055,-27,37,-8
1279,1287,91,-27,2049,-29,38,-17
1280,1288,84,-32,2047,-32,40,-29
1281,1289,94,-25,2066,-34,40,-37
1282,1290,78,-27,2057,-27,39,-46
1283,1291,66,-22,2053,-23,36,-53
1284,1292,59,-23,2068,-28,40,-61
1285,1293,57,-29,2069,-29,39,-68
1286,1294,58,-30,2057,-27,39,-80
1287,1295,65,-23,2068,-27,39,-86
1288,1295,55,-13,2070,-24,36,-90
1289,1296,52,-11,2063,-23,39,-94
1290,1297,57,-16,2069,-23,34,-99
1291,1298,54,-8,2068,-21,26,-104
1292,1299,53,-19,2061,-22,23,-115
1293,1300,49,-16,2058,-18,25,-122
1294,1301,52,-17,2067,-21,27,-124
1295,1302,56,-20,2074,-29,31,-129
1296,1303,63,-9,2075,-27,25,-130
1297,1304,61,-23,2060,-28,22,-137
1298,1305,56,-15,2049,-28,18,-140
1299,1306,56,-12,2056,-26,22,-143
1300,1307,60,-17,2064,-25,21,-151
1301,1308,76,-16,2050,-23,24,-157
1302,1309,62,-6,2052,-23,24,-157
1303,1310,66,-27,2032,-20,24,-157
1304,1311,70,-29,2038,-20,26,-159
1305,1312,72,-21,2056,-22,23,-163
1306,1313,76,-11,2062,-23,22,-164
1307,1314,73,-1,2046,-24,25,-166
1308,1315,73,-11,2058,-23,24,-169
1309,1316,73,-5,2063,-25,25,-166
1310,1317,85,-9,2063,-21,20,-166
1311,1318,86,14,2055,-17,20,-166
1312,1319,75,6,2046,-17,29,-164
1313,1320,64,11,2039,-16,35,-162
1314,1321,71,21,2046,-21,29,-159
1315,1322,57,6,2053,-26,26,-157
1316,1324,59,6,2055,-26,27,-157
1317,1325,57,2,2064,-23,29,-159
1318,1326,60,0,2070,-21,26,-156
1319,1327,54,-2,2052,-21,21,-150
1320,1328,58,5,2046,-28,21,-150
1321,1329,46,15,2054,-26,25,-150
1322,1330,34,31,2046,-24,26,-147
1323,1331,37,26,2064,-26,24,-145
1324,1332,30,5,2052,-31,23,-138
1325,1333,33,4,2048,-29,20,-136
1326,1334,34,24,2066,-33,19,-136
1327,1335,31,28,2059,-30,21,-128
1328,1336,43,29,2051,-25,18,-124
1329,1337,35,17,2051,-25,17,-120
1330,1337,25,10,2061,-28,23,-121
1331,1338,33,9,2067,-24,26,-123
1332,1339,24,4,2054,-26,21,-119
1333,1340,20,10,2066,-33,14,-119
1334,1341,11,18,2073,-32,18,-122
1335,1342,6,25,2065,-32,18,-114
1336,1343,-3,24,2078,-33,14,-112
1337,1344,16,16,2060,-37,10,-123
1338,1345,18,8,2060,-34,9,-123
1339,1346,9,6,2070,-29,13,-118
1340,1347,17,1,2058,-28,17,-121
1341,1348,22,6,2063,-32,17,-121
1342,1349,31,7,2064,-31,12,-121
1343,1350,21,5,2053,-35,13,-125
1344,1351,12,6,2064,-35,12,-128
1345,1352,20,-14,2057,-37,14,-128
1346,1353,26,-22,2055,-39,12,-133
1347,1354,21,-18,2054,-37,4,-136
1348,1355,32,-9,2052,-35,1,-139
1349,1356,36,-13,2066,-30,2,-138
1350,1357,43,-17,2068,-29,4,-136
1351,1358,48,-35,2043,-29,7,-139
1352,1359,50,-45,2062,-31,9,-141
1353,1360,59,-43,2058,-33,8,-142
1354,1361,65,-46,2070,-31,8,-146
1355,1362,63,-33,2047,-26,10,-148
1356,1363,72,-45,2062,-26,10,-151
1357,1364,87,-36,2064,-26,14,-156
1358,1366,84,-51,2056,-22,17,-156
1359,1367,99,-45,2044,-21,16,-151
1360,1368,103,-58,2061,-18,9,-147
1361,1369,100,-52,2056,-16,5,-154
1362,1370,103,-50,2060,-16,5,-161
1363,1371,91,-48,2049,-17,6,-164
1364,1372,83,-60,2062,-20,5,-158
1365,1373,84,-55,2058,-25,5,-158
1366,1374,92,-53,2070,-22,9,-166
1367,1375,94,-59,2077,-15,14,-173
1368,1376,87,-64,2066,-13,17,-172
1369,1377,84,-72,2053,-13,10,-170
1370,1378,74,-68,2053,-15,10,-168
1371,1379,73,-53,2041,-16,12,-170
1372,1379,71,-44,2059,-12,14,-173
1373,1380,46,-44,2059,-11,13,-173
1374,1381,31,-49,2044,-14,8,-178
1375,1382,27,-47,2056,-11,12,-176
1376,1383,12,-51,2064,-7,14,-171
1377,1384,2,-51,2056,-10,10,-169
1378,1385,-1,-44,2045,-9,10,-168
1379,1386,17,-58,2062,-6,11,-167
1380,1387,0,-52,2057,-5,8,-169
1381,1388,-10,-44,2066,-7,7,-164
1382,1389,-9,-37,2059,-8,12,-158
1383,1390,-14,-51,2073,-8,12,-158
1384,1391,-9,-46,2065,-6,11,-156
1385,1392,-13,-34,2055,-6,3,-154
1386,1393,-13,-27,2055,-6,-2,-150
1387,1394,-18,-27,2059,-2,-6,-147
1388,1395,-14,-29,2049,1,-2,-144
1389,1396,-13,-23,2062,1,0,-146
1390,1397,-22,-27,2054,0,0,-144
1391,1398,-25,-12,2060,-2,2,-137
1392,1399,-18,-10,2052,-4,-2,-138
1393,1400,-11,-3,2043,-4,-7,-135
1394,1401,-6,-8,2048,1,-12,-128
1395,1402,-13,-10,2053,2,-8,-126
1396,1403,-3,-17,2060,0,-6,-124
1397,1404,0,-11,2061,0,-10,-125
1398,1405,-2,-11,2060,-1,-14,-123
1399,1406,-1,-13,2066,-5,-20,-118
1400,1408,-7,-17,2067,-7,-20,-112
1401,1409,-6,-6,2058,-8,-19,-111
1402,1410,15,-24,2051,-3,-19,-108
1403,1411,14,1,2042,0,-23,-108
1404,1412,15,-14,2065,4,-27,-108
1405,1413,22,-10,2061,-2,-30,-109
1406,1414,16,-6,2050,-3,-30,-103
1407,1415,16,-16,2064,-3,-27,-97
1408,1416,25,-10,2071,-1,-23,-97
1409,1417,31,-5,2051,-4,-26,-98
1410,1418,36,-6,2052,-3,-33,-96
1411,1419,50,-17,2054,-1,-31,-93
1412,1420,59,-28,2055,3,-21,-89
1413,1421,66,-30,2060,1,-18,-91
1414,1421,59,-26,2062,-1,-20,-91
1415,1422,68,-29,2055,0,-17,-94
1416,1423,76,-22,2062,0,-18,-98
1417,1424,70,-20,2067,-1,-18,-95
1418,1425,70,-25,2064,2,-19,-94
1419,1426,79,-33,2053,5,-17,-94
1420,1427,89,-18,2070,1,-11,-98
1421,1428,84,-15,2044,4,-9,-104
1422,1429,82,-1,2045,5,-16,-104
1423,1430,74,-17,2051,6,-18,-107
1424,1431,81,-24,2045,12,-14,-109
1425,1432,83,-24,2041,11,-13,-108
1426,1433,86,-15,2044,7,-15,-107
1427,1434,86,-14,2051,5,-10,-107
1428,1435,89,-10,2051,9,-12,-108
1429,1436,76,-18,2057,4,-15,-104
1430,1437,63,-16,2060,2,-21,-103
1431,1438,55,-20,2055,1,-18,-101
1432,1439,54,-22,2050,2,-12,-99
1433,1440,47,4,2063,4,-12,-100
1434,1441,39,-12,2064,3,-19,-97
1435,1442,36,-22,2042,5,-23,-94
1436,1443,27,-20,2056,4,-19,-94
1437,1444,19,-17,2064,6,-18,-91
1438,1445,12,-18,2064,3,-21,-89
1439,1446,18,-28,2060,4,-19,-90
1440,1447,18,-24,2049,2,-14,-90
1441,1448,27,-21,2068,5,-16,-87
1442,1450,4,-22,2057,10,-19,-82
1443,1451,-1,-17,2063,9,-24,-79
1444,1452,9,-34,2061,5,-21,-73
1445,1453,7,-24,2063,3,-18,-70
1446,1454,6,-28,2053,1,-22,-67
1447,1455,9,-25,2044,0,-15,-65
1448,1456,24,-33,2052,6,-17,-63
1449,1457,24,-34,2039,10,-22,-59
1450,1458,30,-32,2048,7,-21,-56
1451,1459,49,-30,2050,7,-17,-52
1452,1460,45,-33,2048,10,-16,-52
1453,1461,32,-40,2047,10,-23,-53
1454,1462,28,-46,2061,12,-30,-52
1455,1463,38,-49,2045,12,-37,-48
1456,1463,44,-40,2062,14,-32,-44
1457,1464,36,-31,2053,13,-26,-40
1458,1465,41,-34,2050,13,-31,-36
1459,1466,49,-51,2047,14,-34,-36
1460,1467,54,-60,2058,13,-38,-35
1461,1468,50,-65,2052,13,-38,-31
1462,1469,48,-50,2066,17,-37,-30
1463,1470,45,-55,2059,18,-38,-26
1464,1471,46,-55,2049,16,-37,-23
1465,1472,56,-54,2055,15,-34,-22
1466,1473,86,-58,2071,19,-26,-22
1467,1474,83,-69,2067,19,-22,-21
1468,1475,77,-50,2057,20,-21,-19
1469,1476,83,-61,2059,25,-29,-18
1470,1477,78,-60,2064,27,-35,-19
1471,1478,77,-57,2063,24,-35,-21
1472,1479,77,-61,2062,22,-32,-23
1473,1480,74,-74,2063,24,-32,-25
1474,1481,78,-61,2072,25,-35,-26
1475,1482,80,-45,2077,26,-33,-27
1476,1483,68,-53,2053,31,-27,-24
1477,1484,67,-56,2049,31,-30,-20
1478,1485,50,-58,2052,29,-30,-19
1479,1486,61,-49,2053,28,-30,-18
1480,1487,48,-55,2056,32,-26,-16
1481,1488,46,-43,2051,39,-26,-14
1482,1489,45,-45,2038,36,-27,-11
1483,1490,41,-48,2058,33,-26,-9
1484,1492,30,-60,2067,32,-28,-3
1485,1493,31,-42,2067,35,-27,4
1486,1494,43,-36,2055,36,-27,4
1487,1495,40,-32,2062,36,-27,8
1488,1496,28,-32,2055,37,-34,12
1489,1497,33,-22,2060,38,-39,15
1490,1498,33,-20,2049,41,-35,19
1491,1499,18,-22,2066,42,-32,18
1492,1500,29,-34,2068,39,-38,18
1493,1501,15,-24,2066,40,-43,21
1494,1502,23,-15,2053,42,-39,26
1495,1503,28,-13,2057,40,-32,32
1496,1504,32,-4,2044,40,-28,30
1497,1505,42,-2,2047,42,-29,35
1498,1505,39,-3,2055,42,-29,38
1499,1506,53,-12,2068,39,-31,33
1500,1507,51,-2,2057,41,-34,30
1501,1508,54,-12,2068,41,-35,31
1502,1509,51,2,2065,40,-31,37
1503,1510,66,0,2047,41,-29,41
1504,1511,70,2,2054,41,-27,42
1505,1512,80,-8,2044,41,-28,41
1506,1513,88,-7,2068,35,-29,39
1507,1514,84,-4,2060,35,-30,43
1508,1515,67,-2,2056,42,-28,46
1509,1516,77,-19,2054,42,-26,52
1510,1517,85,-28,2063,41,-33,60
1511,1518,88,-20,2059,41,-40,59
1512,1519,86,-21,2060,39,-33,57
1513,1520,92,-25,2060,43,-27,60
1514,1521,93,-18,2057,45,-31,64
1515,1522,101,-7,2060,42,-34,72
1516,1523,94,-6,2061,40,-32,79
1517,1524,91,-23,2066,41,-30,82
1518,1525,95,-14,2079,46,-26,81
1519,1526,101,-5,2065,43,-23,84
1520,1527,93,-12,2047,42,-25,87
1521,1528,86,-19,2043,43,-26,91
1522,1529,86,-23,2064,43,-24,91
1523,1530,98,-8,2073,43,-26,90
1524,1531,95,-11,2071,47,-27,88
1525,1532,79,0,2051,47,-24,85
1526,1533,76,-2,2043,45,-28,85
1527,1534,69,-16,2069,44,-27,85
1528,1535,73,-27,2068,39,-28,82
1529,1536,70,-12,2048,43,-27,80
1530,1537,61,5,2042,52,-26,77
1531,1538,54,-6,2060,52,-24,74
1532,1539,51,-11,2055,43,-26,70
1533,1540,56,-9,2054,38,-27,68
1534,1541,54,-1,2046,39,-27,63
1535,1542,47,-3,2061,42,-22,60
1536,1543,46,5,2063,45,-27,56
1537,1544,47,4,2073,47,-30,51
1538,1545,44,-7,2065,45,-27,47
1539,1546,47,-5,2049,43,-28,46
1540,1548,36,-2,2047,42,-29,47
1541,1549,35,1,2038,40,-33,45
1542,1550,29,-12,2043,39,-32,40
1543,1551,23,-18,2061,41,-31,39
1544,1552,38,-20,2062,45,-28,38
1545,1553,52,-11,2057,49,-33,36
1546,1554,42,-10,2055,45,-39,35
1547,1555,46,-14,2061,43,-41,25
1548,1556,46,-17,2062,45,-40,18
1549,1557,43,-7,2074,50,-37,15
1550,1558,61,-8,2067,49,-36,13
1551,1559,78,-12,2069,47,-40,9
1552,1560,75,-27,2065,50,-44,4
1553,1561,81,-18,2067,50,-44,1
1554,1561,94,-31,2075,49,-42,-2
1555,1562,101,-18,2055,45,-45,-10
1556,1563,109,-26,2062,43,-39,-19
1557,1564,107,-26,2060,45,-37,-19
1558,1565,110,-23,2079,47,-41,-19
1559,1566,109,-29,2066,48,-44,-26
1560,1567,115,-24,2053,48,-39,-40
1561,1568,117,-35,2065,53,-37,-49
1562,1569,133,-42,2063,56,-36,-49
1563,1570,133,-44,2065,53,-37,-45
1564,1571,134,-37,2055,52,-36,-46
1565,1572,116,-44,2049,52,-36,-50
1566,1573,114,-55,2069,59,-34,-52
1567,1574,123,-49,2060,57,-30,-53
1568,1575,126,-34,2051,55,-28,-57
1569,1576,123,-28,2053,62,-25,-55
1570,1577,128,-38,2051,64,-28,-51
1571,1578,122,-35,2054,63,-26,-49
1572,1579,117,-35,2055,60,-28,-53
1573,1580,105,-33,2040,58,-29,-59
1574,1581,106,-8,2044,57,-26,-59
1575,1582,106,-23,2058,60,-27,-62
1576,1583,81,-24,2050,63,-26,-64
1577,1584,75,-18,2070,60,-20,-63
1578,1585,88,-17,2045,61,-22,-61
1579,1586,80,-24,2045,66,-23,-58
1580,1587,68,-12,2055,72,-20,-58
1581,1588,57,-7,2041,64,-20,-56
1582,1590,61,0,2045,60,-22,-57
1583,1591,59,-17,2044,59,-22,-56
1584,1592,60,5,2056,61,-22,-53
1585,1593,61,16,2061,61,-26,-51
1586,1594,60,11,2049,62,-31,-49
1587,1595,53,9,2069,64,-28,-44
1588,1596,46,16,2056,63,-28,-41
1589,1597,42,11,2048,62,-29,-46
1590,1598,39,15,2060,62,-30,-43
1591,1599,39,22,2060,61,-27,-33
1592,1600,42,19,2044,60,-23,-25
1593,1601,49,24,2056,60,-22,-20
1594,1602,52,22,2040,59,-21,-17
1595,1603,55,18,2039,57,-26,-17
1596,1603,39,25,2041,58,-29,-10
1597,1604,39,29,2044,60,-28,-8
1598,1605,44,32,2059,59,-23,-9
1599,1606,48,25,2055,57,-25,-2
1600,1607,49,22,2040,53,-31,8
1601,1608,47,19,2057,55,-33,18
1602,1609,45,22,2047,57,-31,23
1603,1610,68,26,2037,55,-26,29
1604,1611,59,17,2044,52,-25,37
1605,1612,57,19,2048,54,-26,47
1606,1613,59,18,2059,59,-27,54
1607,1614,74,18,2057,57,-25,58
1608,1615,71,19,2050,58,-26,65
1609,1616,78,9,2062,56,-23,77
1610,1617,82,8,2061,55,-20,87
1611,1618,96,16,2064,52,-15,94
1612,1619,86,7,2064,55,-13,98
1613,1620,87,10,2059,58,-15,103
1614,1621,95,9,2067,57,-22,111
1615,1622,93,-4,2054,57,-26,117
1616,1623,95,-8,2067,59,-24,124
1617,1624,102,0,2055,58,-19,130
1618,1625,116,16,2048,58,-18,135
1619,1626,94,-1,2054,55,-19,137
1620,1627,83,-2,2057,56,-16,148
1621,1628,96,-7,2053,59,-14,152
1622,1629,89,6,2043,59,-15,153
1623,1630,94,6,2044,57,-16,156
1624,1632,90,6,2048,57,-13,162
1625,1633,90,1,2055,57,-13,166
1626,1634,83,2,2054,56,-14,167
1627,1635,90,-9,2060,54,-20,176
1628,1636,94,-13,2059,50,-15,181
1629,1637,78,-4,2048,52,-8,184
1630,1638,78,-12,2046,55,-8,186
1631,1639,84,-6,2063,57,-8,185
1632,1640,91,-2,2053,59,-7,188
1633,1641,84,0,2067,60,-11,191
1634,1642,77,-6,2065,59,-9,194
1635,1643,72,-12,2059,57,-10,200
1636,1644,78,-8,2050,60,-10,202
1637,1645,77,4,2050,60,-3,200
1638,1645,71,2,2045,57,-2,201
1639,1646,62,14,2053,59,-8,203
1640,1647,56,1,2047,59,-11,199
1641,1648,60,-7,2057,60,-8,202
1642,1649,69,-1,2057,62,-8,204
1643,1650,70,4,2051,61,-6,205
1644,1651,71,2,2051,61,-8,202
1645,1652,68,2,2058,58,-8,206
1646,1653,69,16,2049,59,-6,208
1647,1654,61,19,2053,57,-4,207
1648,1655,71,9,2060,57,-3,208
1649,1656,65,-1,2058,54,-6,208
1650,1657,69,0,2044,57,-5,207
1651,1658,70,0,2049,57,-5,209
1652,1659,75,12,2046,61,-9,207
1653,1660,79,16,2037,59,-7,204
1654,1661,80,15,2064,55,-1,204
1655,1662,81,14,2065,57,-1,209
1656,1663,89,7,2061,59,-4,209
1657,1664,84,15,2047,57,-7,202
1658,1665,73,14,2044,55,-14,205
1659,1666,78,3,2064,58,-13,206
1660,1667,86,4,2062,60,-8,209
1661,1668,87,24,2048,59,-1,210
1662,1669,90,12,2063,58,-5,208
1663,1670,91,20,2055,62,-4,204
1664,1671,101,22,2077,61,-1,203
1665,1672,102,12,2054,61,-1,205
1666,1673,106,18,2065,58,-1,207
1667,1674,116,3,2059,57,-1,208
1668,1675,93,6,2061,56,-1,208
1669,1676,103,29,2049,56,-4,202
1670,1677,108,38,2061,55,-1,198
1671,1678,99,23,2063,57,0,200
1672,1679,99,23,2065,58,0,206
1673,1680,92,30,2057,56,-1,205
1674,1681,99,20,2049,55,-2,202
1675,1682,100,33,2052,56,-6,200
1676,1683,107,34,2055,50,-4,200
1677,1684,97,43,2055,49,3,197
1678,1685,93,45,2042,53,10,195
1679,1686,94,38,2046,53,6,193
1680,1687,100,41,2056,54,-1,192
1681,1688,95,41,2058,49,3,195
1682,1689,107,38,2060,49,6,195
1683,1690,108,26,2062,53,6,195
1684,1691,112,52,2050,49,7,190
1685,1692,112,62,2050,51,6,190
1686,1693,100,50,2048,55,4,187
1687,1694,87,39,2044,51,3,185
1688,1695,88,55,2061,46,7,185
1689,1696,89,56,2060,49,11,185
1690,1697,83,58,2045,50,14,183
1691,1698,90,71,2048,47,8,183
1692,1699,96,57,2059,45,5,180
1693,1700,84,49,2056,39,8,176
1694,1701,81,53,2048,40,9,175
1695,1702,76,47,2057,46,10,179
1696,1703,73,65,2062,45,10,177
1697,1704,69,74,2056,43,11,177
1698,1705,77,62,2052,38,8,172
1699,1706,80,64,2045,40,7,170
1700,1707,81,55,2034,36,4,174
1701,1708,72,59,2053,37,-1,176
1702,1709,68,57,2052,44,10,174
1703,1710,67,59,2060,41,18,174
1704,1711,61,51,2055,34,15,177
1705,1712,69,48,2044,28,9,172
1706,1713,81,51,2040,31,7,172
1707,1714,80,51,2046,28,7,175
1708,1715,78,53,2065,29,3,169
1709,1716,70,52,2053,28,-2,165
1710,1717,84,35,2052,25,0,164
1711,1718,70,44,2042,23,4,165
1712,1719,68,52,2054,25,8,160
1713,1720,64,66,2045,26,3,160
1714,1721,74,60,2034,24,3,156
1715,1722,84,39,2031,28,5,149
1716,1723,80,43,2058,31,6,144
1717,1724,79,49,2069,25,8,142
1718,1725,80,58,2039,24,5,141
1719,1726,87,56,2057,25,2,141
1720,1727,91,50,2060,25,4,135
1721,1728,86,37,2049,22,7,133
1722,1729,87,32,2060,22,10,131
1723,1730,103,42,2069,20,8,124
1724,1731,101,38,2046,21,9,120
1725,1732,89,51,2052,20,9,121
1726,1733,98,40,2036,21,8,118
1727,1734,83,37,2039,23,9,113
1728,1735,87,37,2054,27,6,108
1729,1736,109,37,2046,25,11,106
1730,1737,104,34,2059,18,10,106
1731,1738,103,34,2070,15,3,106
1732,1739,103,40,2053,12,2,103
1733,1740,97,38,2058,12,14,98
1734,1741,96,33,2041,17,17,95
1735,1742,100,43,2035,19,11,93
1736,1743,103,41,2064,18,7,92
1737,1744,102,49,2061,12,14,92
1738,1745,99,38,2055,12,15,87
1739,1746,100,46,2047,13,14,88
1740,1747,102,38,2044,13,10,83
1741,1748,93,49,2050,12,14,79
1742,1749,92,51,2074,12,14,75
1743,1750,93,45,2070,10,14,74
1744,1751,84,49,2062,13,12,69
1745,1752,88,33,2056,13,11,62
1746,1753,95,51,2055,12,12,53
1747,1754,92,46,2056,8,10,51
1748,1755,78,57,2053,5,10,47
1749,1756,84,51,2058,7,14,42
1750,1757,86,45,2070,4,16,37
1751,1758,86,70,2058,5,11,31
1752,1759,93,54,2065,8,7,31
1753,1760,86,41,2061,4,10,29
1754,1761,82,44,2074,0,19,22
1755,1762,88,55,2066,1,18,15
1756,1763,76,48,2048,1,14,12
1757,1764,80,49,2065,0,12,10
1758,1765,91,47,2067,2,8,9
1759,1766,85,46,2060,3,5,5
1760,1767,73,44,2066,1,9,2
1761,1768,74,48,2059,-3,10,0
1762,1769,74,52,2076,-3,8,2
1763,1770,75,54,2074,-2,9,8
1764,1773,76,55,2062,-5,7,8
1765,1774,78,64,2047,-8,10,3
1766,1775,72,61,2045,-9,14,-1
1767,1776,70,46,2053,-7,10,-4
1768,1777,65,52,2051,-6,7,3
1769,1778,66,64,2054,-9,7,8
1770,1779,73,65,2061,-4,6,13
1771,1780,89,70,2062,-6,11,15
1772,1781,82,73,2057,-8,19,13
1773,1782,75,64,2041,-6,19,12
1774,1783,79,49,2038,-9,13,11
1775,1784,70,52,2054,-13,9,10
1776,1785,84,61,2045,-13,11,12
1777,1786,88,61,2062,-15,14,14
1778,1785,86,65,2048,-12,15,12
1779,1786,84,64,2056,-14,15,11
1780,1787,94,66,2040,-17,10,7
1781,1788,87,60,2041,-16,11,9
1782,1789,91,57,2033,-18,13,5
1783,1790,81,71,2061,-20,14,2
1784,1791,80,64,2080,-16,19,3
1785,1792,90,66,2066,-14,15,-2
1786,1793,101,51,2057,-16,12,-5
1787,1794,98,54,2052,-19,16,-4
1788,1795,94,57,2048,-19,18,-1
1789,1796,99,56,2055,-18,20,0
1790,1797,92,55,2039,-18,19,2
1791,1798,100,55,2044,-22,22,6
1792,1799,99,49,2062,-30,24,7
1793,1800,86,40,2043,-27,25,13
1794,1801,91,54,2066,-26,24,17
1795,1802,87,53,2060,-25,23,21
1796,1803,90,51,2060,-27,22,21
1797,1804,85,53,2055,-30,24,25
1798,1805,86,46,2056,-34,26,34
1799,1806,95,55,2047,-38,26,43
1800,1807,91,43,2055,-32,26,49
1801,1808,83,41,2053,-28,27,61
1802,1809,78,40,2052,-28,29,72
1803,1810,72,43,2042,-26,35,79
1804,1811,62,50,2031,-30,34,86
1805,1812,58,51,2044,-35,29,91
1806,1813,56,59,2043,-36,29,102
1807,1814,63,51,2054,-38,30,109
1808,1815,62,37,2053,-38,30,118
1809,1816,54,36,2052,-40,35,132
1810,1817,47,41,2056,-41,38,132
1811,1818,57,50,2064,-39,32,137
1812,1819,45,33,2059,-36,27,138
1813,1820,44,38,2053,-35,26,141
1814,1821,42,45,2052,-35,29,148
1815,1822,37,35,2064,-36,29,152
1816,1823,38,32,2046,-39,28,154
1817,1824,38,37,2041,-36,28,155
1818,1825,46,43,2046,-40,29,160
1819,1826,35,27,2055,-43,27,159
1820,1827,24,25,2046,-43,24,156
1821,1828,45,31,2053,-41,23,155
1822,1829,33,33,2059,-42,23,152
1823,1830,29,23,2063,-43,20,148
1824,1831,12,11,2065,-46,20,140
1825,1832,22,20,2053,-44,19,138
1826,1833,38,18,2055,-43,22,132
1827,1834,33,11,2056,-48,22,131
1828,1835,36,1,2052,-47,19,131
1829,1836,48,-10,2054,-43,21,125
1830,1837,40,-17,2055,-45,22,119
1831,1838,35,-1,2062,-45,21,118
1832,1839,36,-3,2050,-46,16,118
1833,1840,36,-6,2052,-46,17,120
1834,1841,42,15,2048,-48,21,124
1835,1842,51,0,2069,-46,17,119
1836,1843,58,-11,2057,-44,18,116
1837,1844,61,-21,2044,-40,16,112
1838,1845,51,-6,2044,-40,11,105
1839,1846,43,-14,2037,-44,8,104
1840,1847,51,-23,2050,-43,9,100
1841,1848,64,-24,2059,-39,12,100
1842,1849,70,-27,2059,-42,17,98
1843,1850,72,-28,2038,-40,15,96
1844,1851,75,-15,2048,-38,10,96
1845,1852,71,-14,2056,-44,10,93
1846,1853,78,-16,2052,-43,11,92
1847,1854,85,-28,2054,-38,10,92
1848,1855,96,-33,2069,-42,10,89
1849,1856,84,-17,2056,-43,13,84
1850,1857,92,-31,2061,-38,17,87
1851,1858,87,-26,2048,-34,24,90
1852,1859,86,-28,2063,-36,22,88
1853,1860,92,-25,2058,-36,19,90
1854,1861,105,-19,2056,-32,20,88
1855,1862,108,-25,2064,-30,24,90
1856,1863,98,-15,2079,-25,21,90
1857,1864,104,-13,2086,-26,20,89
1858,1865,117,-20,2062,-30,21,85
1859,1866,107,-14,2050,-30,22,78
1860,1867,96,-13,2056,-30,18,81
1861,1868,88,-8,2074,-25,16,81
1862,1869,90,1,2057,-29,18,76
1863,1870,96,1,2068,-34,22,69
1864,1871,83,-5,2062,-36,27,67
1865,1872,82,-1,2054,-35,29,65
1866,1873,79,6,2058,-33,29,73
1867,1874,77,4,2042,-34,29,76
1868,1875,71,-1,2051,-36,30,74
1869,1876,72,1,2058,-36,31,71
1870,1877,63,25,2042,-36,30,66
1871,1878,74,26,2060,-36,28,69
1872,1879,78,3,2051,-31,25,71
1873,1880,52,16,2058,-33,25,72
1874,1881,51,29,2043,-32,25,74
1875,1882,53,15,2048,-34,23,76
1876,1883,49,24,2059,-39,19,77
1877,1884,58,24,2064,-35,20,78
1878,1885,47,8,2043,-29,21,79
1879,1886,42,3,2053,-31,26,80
1880,1887,49,8,2065,-37,31,82
1881,1888,37,18,2055,-36,30,85
1882,1889,30,14,2067,-30,20,87
1883,1890,41,27,2055,-32,18,87
1884,1891,35,28,2064,-39,18,85
1885,1892,29,22,2074,-36,14,85
1886,1893,31,25,2061,-35,15,83
1887,1894,28,14,2067,-36,21,79
1888,1895,21,13,2057,-36,15,76
1889,1896,22,10,2062,-39,17,72
1890,1897,18,11,2058,-44,13,73
1891,1898,30,8,2051,-39,12,72
1892,1899,29,6,2052,-33,13,68
1893,1900,18,-5,2059,-37,16,62
1894,1901,28,-10,2066,-37,10,56
1895,1902,38,-10,2048,-34,5,53
1896,1903,36,3,2054,-34,7,50
1897,1904,27,-7,2049,-34,10,46
1898,1905,31,-26,2062,-35,7,43
1899,1906,25,-32,2067,-34,3,44
1900,1907,25,-35,2059,-34,-1,42
1901,1908,28,-30,2058,-34,-1,36
1902,1909,39,-26,2046,-36,-2,29
1903,1910,45,-35,2027,-39,0,25
1904,1911,51,-38,2033,-37,-1,20
1905,1912,49,-39,2045,-33,-5,15
1906,1913,39,-60,2051,-28,-1,3
1907,1914,38,-57,2062,-25,-2,-5
1908,1915,53,-63,2051,-31,-3,-8
1909,1916,67,-58,2059,-33,-1,-12
1910,1917,62,-56,2060,-31,-3,-15
1911,1918,62,-52,2055,-29,-3,-18
1912,1919,59,-68,2059,-27,0,-23
1913,1920,62,-70,2064,-22,3,-26
1914,1921,73,-75,2047,-17,-2,-32
1915,1922,74,-58,2068,-14,-6,-39
1916,1923,71,-68,2064,-17,-7,-45
1917,1924,74,-71,2054,-22,-3,-52
1918,1925,71,-69,2057,-21,-5,-57
1919,1926,72,-69,2055,-19,-4,-60
1920,1927,72,-70,2053,-19,-3,-64
1921,1928,67,-79,2059,-20,-1,-62
1922,1929,64,-72,2044,-20,-4,-64
1923,1930,73,-68,2066,-15,-2,-70
1924,1931,64,-72,2083,-11,0,-69
1925,1932,76,-81,2062,-10,-3,-70
1926,1933,80,-85,2048,-4,-5,-70
1927,1934,72,-83,2066,-6,-2,-72
1928,1935,60,-79,2072,-10,-1,-70
1929,1936,57,-70,2058,-7,0,-64
1930,1937,58,-55,2051,-7,-3,-67
1931,1938,55,-58,2067,-5,-4,-69
1932,1939,54,-67,2082,-4,-4,-67
1933,1940,46,-79,2064,-2,-6,-65
1934,1941,42,-82,2036,2,-3,-64
1935,1942,50,-71,2064,0,2,-66
1936,1943,44,-51,2046,2,3,-63
1937,1944,37,-47,2043,4,-3,-57
1938,1945,35,-53,2050,6,-4,-57
1939,1946,35,-57,2064,5,-3,-61
1940,1947,38,-48,2060,5,-2,-57
1941,1948,32,-43,2051,7,-2,-55
1942,1949,24,-44,2057,7,-4,-53
1943,1950,20,-30,2044,11,-6,-52
1944,1951,22,-31,2060,10,-5,-55
1945,1952,23,-39,2044,7,-8,-56
1946,1953,6,-26,2039,5,-13,-53
1947,1954,1,-27,2037,11,-16,-50
1948,1955,2,-26,2044,14,-13,-48
1949,1956,-1,-20,2040,16,-14,-45
1950,1957,9,-14,2072,9,-14,-42
1951,1958,6,-15,2075,8,-16,-40
1952,1959,13,-13,2059,16,-15,-34
1953,1960,-6,-19,2045,20,-14,-29
1954,1961,-3,-6,2046,12,-14,-23
1955,1962,0,-19,2053,13,-20,-16
1956,1963,-9,-15,2062,15,-22,-19
1957,1964,-4,-16,2053,20,-21,-13
1958,1965,-16,-19,2065,16,-26,-5
1959,1966,-6,-11,2062,13,-23,6
1960,1968,-3,-8,2049,12,-21,16
1961,1969,-12,-21,2058,15,-23,16
1962,1970,7,-16,2039,17,-24,21
1963,1971,-2,-15,2047,13,-18,31
1964,1972,0,-10,2035,14,-17,35
1965,1973,13,5,2038,19,-23,41
1966,1974,18,-10,2042,21,-29,53
1967,1975,15,-20,2051,12,-30,63
1968,1976,25,-14,2053,12,-28,71
1969,1977,18,-14,2070,16,-28,73
1970,1978,25,-29,2043,18,-32,74
1971,1979,22,-31,2055,21,-38,83
1972,1980,26,-35,2048,16,-33,91
1973,1981,29,-33,2048,17,-27,99
1974,1981,39,-40,2061,18,-23,104
1975,1982,46,-31,2072,16,-27,110
1976,1983,32,-32,2074,15,-29,115
1977,1984,32,-38,2076,18,-30,121
1978,1985,34,-48,2062,23,-29,130
1979,1986,48,-47,2060,23,-26,135
1980,1987,49,-52,2057,20,-21,140
1981,1988,44,-50,2053,21,-20,143
1982,1989,53,-52,2061,26,-22,146
1983,1990,55,-47,2060,29,-24,146
1984,1991,64,-42,2037,27,-25,146
1985,1992,63,-40,2040,24,-26,146
1986,1993,53,-60,2077,22,-26,148
1987,1994,47,-50,2078,25,-29,148
1988,1995,51,-63,2078,30,-35,145
1989,1996,56,-64,2074,33,-40,139
1990,1997,48,-63,2066,32,-36,135
1991,1998,52,-62,2062,32,-33,133
1992,1999,53,-67,2070,31,-33,128
1993,2000,61,-57,2068,32,-30,117
1994,2001,57,-64,2072,34,-31,113
1995,2002,66,-52,2069,35,-33,114
1996,2003,67,-59,2071,38,-32,108
1997,2004,60,-49,2067,40,-33,96
1998,2005,54,-46,2062,41,-33,85
1999,2006,47,-39,2066,42,-34,77
2000,2007,54,-53,2066,43,-34,72
2001,2008,62,-36,2056,44,-37,66
2002,2009,57,-54,2048,46,-36,52
2003,2010,55,-63,2046,46,-36,41
2004,2011,45,-69,2059,47,-36,36
2005,2012,53,-48,2067,47,-35,30
2006,2013,49,-57,2057,48,-30,23
2007,2014,56,-55,2055,49,-34,18
2008,2015,55,-69,2069,50,-42,9
2009,2016,47,-53,2069,52,-47,2
2010,2017,55,-50,2065,54,-43,-2
2011,2018,51,-61,2050,57,-38,-5
2012,2019,54,-62,2046,54,-39,-10
2013,2020,48,-51,2058,53,-42,-14
2014,2021,51,-52,2058,53,-44,-20
2015,2022,55,-47,2065,55,-45,-20
2016,2023,56,-45,2075,55,-47,-20
2017,2024,46,-40,2080,55,-46,-19
2018,2025,40,-42,2056,53,-44,-24
2019,2026,37,-32,2061,57,-45,-22
2020,2027,52,-45,2066,57,-45,-19
2021,2028,42,-40,2055,61,-51,-18
2022,2029,38,-33,2061,62,-58,-20
2023,2030,25,-25,2058,60,-59,-14
2024,2031,27,-27,2058,62,-55,-6
2025,2032,35,-16,2065,65,-52,3
2026,2033,27,-10,2061,66,-53,6
2027,2034,30,-10,2058,63,-57,5
2028,2035,22,-9,2066,61,-58,4
2029,2036,23,-4,2067,61,-58,9
2030,2037,30,-9,2052,63,-57,12
2031,2038,19,-8,2055,64,-48,14
2032,2039,15,-6,2044,61,-44,16
2033,2040,22,-3,2056,60,-41,18
2034,2041,23,7,2054,65,-44,23
2035,2042,39,-2,2064,63,-49,20
2036,2043,24,9,2053,59,-51,19
2037,2044,34,9,2059,63,-51,28
2038,2045,23,23,2051,68,-51,32
2039,2046,22,7,2056,70,-45,32
2040,2047,13,6,2047,66,-47,36
2041,2048,18,15,2047,66,-57,45
2042,2049,23,22,2043,68,-61,55
2043,2050,25,16,2040,66,-64,62
2044,2051,23,21,2049,63,-59,71
2045,2052,27,24,2047,62,-54,77
2046,2053,20,23,2054,60,-55,86
2047,2054,26,20,2055,59,-61,96
2048,2055,20,25,2041,62,-58,106
2049,2056,25,22,2039,62,-55,119
2050,2057,26,20,2047,60,-56,132
2051,2058,24,24,2058,58,-60,144
2052,2059,27,14,2062,56,-60,153
2053,2060,24,16,2068,59,-58,165
2054,2061,31,23,2079,61,-57,181
2055,2062,35,16,2067,60,-64,193
2056,2063,32,11,2057,60,-63,202
2057,2064,12,18,2046,61,-60,214
2058,2065,27,18,2056,61,-64,222
2059,2066,33,17,2060,59,-65,226
2060,2067,37,23,2060,61,-61,238
2061,2068,39,22,2054,62,-58,245
2062,2069,41,19,2060,60,-58,253
2063,2070,49,16,2062,53,-62,261
2064,2071,60,1,2062,58,-63,265
2065,2072,54,11,2057,58,-61,271
2066,2073,59,15,2055,59,-59,280
2067,2074,55,27,2059,57,-55,287
2068,2075,71,5,2059,55,-57,296
2069,2076,75,1,2038,56,-56,301
2070,2077,69,2,2042,59,-57,309
2071,2078,73,-7,2054,59,-51,315
2072,2079,85,-21,2059,60,-53,319
2073,2080,85,-18,2041,57,-55,326
2074,2081,91,-32,2048,60,-52,336
2075,2082,104,-28,2048,58,-48,340
2076,2083,108,-22,2036,59,-49,343
2077,2084,107,-25,2046,62,-50,353
2078,2085,108,-11,2030,65,-49,362
2079,2086,106,-22,2054,66,-49,371
2080,2087,95,-15,2039,67,-50,381
2081,2088,105,-33,2053,61,-43,388
2082,2089,108,-27,2057,61,-42,392
2083,2090,113,-40,2053,65,-44,398
2084,2091,104,-32,2044,68,-45,405
2085,2092,104,-25,2060,70,-43,409
2086,2093,123,-26,2060,72,-39,414
2087,2094,129,-26,2050,73,-39,422
2088,2095,126,-22,2054,70,-40,425
2089,2096,111,-15,2046,68,-37,429
2090,2097,110,-14,2060,67,-35,432
2091,2098,120,-20,2055,64,-36,440
2092,2099,115,-8,2075,68,-39,443
2093,2100,110,-16,2049,71,-40,446
2094,2101,106,-5,2067,68,-39,449
2095,2102,106,1,2055,70,-35,449
2096,2103,85,-9,2053,69,-29,454
2097,2104,88,-8,2045,68,-29,455
2098,2105,91,1,2049,72,-25,456
2099,2106,90,8,2049,74,-26,456
2100,2107,88,8,2059,76,-23,458
2101,2108,84,4,2041,72,-20,462
2102,2109,83,-3,2055,71,-22,465
2103,2110,74,9,2045,74,-23,464
2104,2111,91,10,2051,74,-20,460
2105,2112,93,25,2038,76,-20,460
2106,2113,95,6,2045,75,-24,460
2107,2114,80,3,2044,74,-23,461
2108,2115,71,4,2048,73,-20,466
2109,2116,66,9,2036,74,-21,472
2110,2117,51,31,2039,74,-24,477
2111,2118,52,34,2031,73,-29,477
2112,2119,67,33,2038,69,-33,480
2113,2120,58,26,2043,73,-29,481
2114,2121,57,20,2043,74,-23,484
2115,2122,59,26,2053,69,-17,489
2116,2123,66,43,2044,67,-22,493
2117,2124,69,48,2073,68,-24,502
2118,2125,63,42,2058,67,-26,507
2119,2126,58,50,2054,68,-29,512
2120,2127,51,35,2052,64,-27,513
2121,2128,55,41,2052,64,-28,518
2122,2129,66,38,2041,63,-35,521
2123,2130,69,50,2060,64,-30,524
2124,2131,70,57,2062,68,-30,532
2125,2132,76,56,2070,64,-29,538
2126,2133,74,65,2077,60,-30,540
2127,2134,68,59,2068,58,-34,546
2128,2135,71,55,2054,57,-29,555
2129,2136,83,47,2040,58,-23,561
2130,2137,80,41,2047,60,-23,566
2131,2138,86,45,2064,61,-22,570
2132,2139,80,53,2059,59,-24,574
2133,2140,84,57,2059,56,-22,578
2134,2141,95,57,2043,60,-25,584
2135,2142,96,37,2039,57,-27,591
2136,2143,95,28,2048,54,-22,599
2137,2144,100,35,2057,58,-19,601
2138,2145,116,53,2050,53,-21,606
2139,2146,109,43,2041,52,-26,615
2140,2147,111,29,2049,53,-24,623
2141,2148,103,26,2061,54,-20,626
2142,2149,98,29,2074,56,-16,632
2143,2150,105,34,2049,54,-13,638
2144,2151,113,28,2044,51,-16,645
2145,2152,108,21,2041,48,-16,654
2146,2153,108,-3,2049,48,-20,661
2147,2154,113,20,2051,52,-19,663
2148,2155,122,24,2056,52,-14,663
2149,2156,121,28,2047,54,-12,662
2150,2157,116,28,2047,53,-10,666
2151,2158,113,5,2062,52,-9,669
2152,2159,120,4,2056,53,-7,670
2153,2160,112,-3,2061,56,-7,676
2154,2161,118,14,2045,55,-6,680
2155,2162,115,17,2062,51,-1,685
2156,2163,127,7,2066,52,-1,689
2157,2164,139,12,2058,51,-1,691
2158,2165,125,10,2059,51,2,696
2159,2166,121,4,2065,54,2,702
2160,2167,130,4,2044,57,3,705
2161,2168,131,5,2041,59,7,707
2162,2169,127,14,2061,58,3,712
2163,2170,125,16,2071,53,4,716
2164,2171,123,10,2042,52,4,721
2165,2172,119,11,2049,55,7,727
2166,2173,118,8,2052,54,10,736
2167,2174,111,20,2025,51,12,738
2168,2175,114,16,2043,53,8,739
2169,2176,119,0,2071,52,10,749
2170,2177,112,-2,2073,52,17,757
2171,2178,98,23,2062,50,21,761
2172,2179,108,16,2029,53,19,768
2173,2180,101,13,2034,55,15,776
2174,2181,106,11,2042,55,12,780
2175,2182,104,21,2040,52,17,787
2176,2183,98,17,2054,47,22,796
2177,2184,94,18,2042,49,21,800
2178,2185,98,22,2023,49,19,804
2179,2186,99,29,2028,48,14,813
2180,2187,84,14,2050,51,22,822
2181,2188,73,9,2055,53,21,830
2182,2189,79,19,2057,52,22,834
2183,2190,77,33,2047,54,22,837
2184,2191,73,31,2073,51,18,842
2185,2192,80,40,2057,53,22,845
2186,2193,81,30,2051,54,25,846
2187,2194,75,43,2057,55,25,853
2188,2195,73,42,2072,51,24,857
2189,2196,68,33,2065,48,23,861
2190,2197,61,33,2049,46,23,867
2191,2198,53,41,2052,47,27,868
2192,2199,53,46,2058,47,28,868
2193,2200,61,39,2059,51,25,868
2194,2201,58,46,2052,51,27,869
2195,2202,63,39,2045,48,27,876
2196,2203,69,27,2057,51,25,884
2197,2204,60,35,2067,50,23,890
2198,2205,59,31,2062,49,25,896
2199,2206,57,34,2051,45,26,902
2200,2207,62,47,2040,47,25,904
2201,2208,64,49,2068,47,23,905
2202,2209,61,41,2055,46,22,908
2203,2210,77,43,2057,43,23,913
2204,2211,68,55,2048,44,19,916
2205,2212,47,42,2041,45,25,920
2206,2213,52,39,2036,43,29,923
2207,2214,66,39,2052,43,25,927
2208,2215,61,44,2047,43,20,927
2209,2216,52,45,2064,46,17,924
2210,2217,67,48,2057,42,21,924
2211,2218,72,42,2049,34,22,923
2212,2219,68,37,2041,38,27,923
2213,2220,66,54,2051,42,23,922
2214,2221,54,53,2054,43,21,926
2215,2222,51,55,2064,41,20,927
2216,2223,62,65,2059,40,15,921
2217,2224,82,54,2053,39,16,916
2218,2225,89,51,2054,39,20,911
2219,2226,71,63,2048,40,22,908
2220,2227,80,67,2048,38,15,903
2221,2228,90,57,2040,35,13,899
2222,2229,78,62,2050,33,15,895
2223,2230,75,70,2048,35,20,894
2224,2231,79,58,2043,30,27,892
2225,2232,93,58,2047,23,25,891
2226,2233,98,51,2062,23,21,890
2227,2234,86,47,2042,29,21,888
2228,2235,82,41,2045,28,18,887
2229,2236,84,41,2046,25,16,883
2230,2237,82,52,2050,24,20,883
2231,2238,81,48,2063,22,19,888
2232,2239,82,35,2036,22,15,889
2233,2240,85,55,2044,24,19,883
2234,2241,72,46,2045,27,26,881
2235,2242,87,59,2058,24,24,884
2236,2243,97,46,2044,21,22,885
2237,2244,94,57,2044,20,23,888
2238,2245,84,44,2042,20,25,893
2239,2246,92,40,2049,18,24,896
2240,2247,85,37,2029,14,23,894
2241,2248,84,36,2045,14,22,892
2242,2249,80,58,2056,15,24,895
2243,2250,81,53,2056,17,26,900
2244,2251,82,49,2072,17,26,902
2245,2252,75,47,2056,18,23,904
2246,2253,80,36,2050,14,21,903
2247,2254,83,46,2057,15,22,901
2248,2255,77,38,2043,17,20,905
2249,2256,75,39,2049,14,28,909
2250,2257,75,36,2040,14,29,905
2251,2258,76,41,2053,11,27,902
2252,2259,68,40,2070,11,24,901
2253,2260,89,46,2071,12,29,906
2254,2262,80,47,2065,11,33,906
2255,2263,84,36,2049,10,27,901
2256,2264,85,48,2054,12,22,904
2257,2265,80,37,2073,18,23,904
2258,2266,86,48,2064,15,25,905
2259,2267,83,47,2059,9,27,909
2260,2268,95,28,2066,5,29,907
2261,2269,93,40,2057,3,30,906
2262,2270,97,42,2055,5,27,902
2263,2271,95,44,2054,9,26,896
2264,2272,96,34,2067,4,28,894
2265,2273,94,38,2058,3,34,893
2266,2274,104,45,2057,6,28,886
2267,2275,97,46,2062,5,24,881
2268,2275,103,41,2060,8,27,875
2269,2276,117,31,2043,6,30,867
2270,2277,117,41,2051,0,30,861
2271,2278,128,40,2050,1,28,854
2272,2279,113,47,2051,4,25,847
2273,2280,106,45,2060,-1,27,837
2274,2281,119,38,2074,-3,29,829
2275,2282,116,30,2077,-2,36,820
2276,2283,112,32,2078,0,34,816
2277,2284,117,32,2053,-4,32,812
2278,2285,102,29,2056,-6,33,797
2279,2286,120,36,2057,-5,26,784
2280,2287,127,40,2068,-3,27,777
2281,2288,127,40,2052,-5,30,768
2282,2289,125,45,2051,-5,31,761
2283,2290,121,35,2046,-1,34,754
2284,2291,110,43,2035,-2,40,739
2285,2292,120,35,2044,-5,35,727
2286,2293,120,45,2047,-9,31,713
2287,2294,123,57,2060,-9,31,700
2288,2295,121,63,2071,-9,33,686
2289,2296,127,59,2084,-11,34,676
2290,2297,120,56,2065,-13,32,665
2291,2298,119,65,2054,-12,30,651
2292,2299,119,59,2046,-8,32,635
2293,2300,124,56,2059,-14,32,617
2294,2301,107,70,2060,-15,32,602
2295,2302,113,72,2060,-18,30,592
2296,2303,98,71,2039,-18,31,577
2297,2304,108,74,2046,-19,33,560
2298,2305,108,75,2050,-21,30,542
2299,2306,104,83,2061,-22,26,522
2300,2307,95,74,2056,-17,25,507
2301,2308,96,70,2054,-18,25,495
2302,2309,102,72,2056,-16,24,478
2303,2310,93,71,2038,-18,27,456
2304,2311,90,83,2038,-26,32,436
2305,2312,91,67,2052,-27,30,421
2306,2313,92,75,2068,-25,28,403
2307,2314,89,77,2064,-27,23,389
2308,2315,94,70,2052,-29,18,376
2309,2316,94,77,2045,-26,16,365
2310,2317,93,68,2080,-31,22,344
2311,2318,94,60,2063,-35,25,320
2312,2319,91,79,2061,-35,24,303
2313,2320,86,81,2069,-32,27,289
2314,2321,90,75,2066,-33,23,271
2315,2322,93,67,2045,-34,14,254
2316,2323,79,70,2053,-33,13,242
2317,2324,76,71,2059,-33,18,228
2318,2325,75,66,2065,-43,17,209
2319,2326,77,68,2046,-50,14,192
2320,2327,80,66,2053,-45,13,174
2321,2328,96,63,2055,-43,14,156
2322,2329,94,69,2065,-47,6,140
2323,2330,94,59,2057,-48,3,130
2324,2331,90,54,2063,-50,3,120
2325,2332,88,49,2055,-50,4,110
2326,2333,96,53,2064,-45,3,102
2327,2334,90,51,2060,-47,-1,91
2328,2335,90,55,2067,-54,2,77
2329,2336,81,49,2074,-56,7,68
2330,2337,90,47,2067,-53,9,62
2331,2338,80,45,2058,-53,6,60
2332,2339,84,37,2051,-53,6,61
2333,2340,73,35,2043,-53,6,54
2334,2341,86,33,2049,-51,4,41
2335,2342,96,31,2066,-52,7,34
2336,2343,81,25,2058,-55,3,31
2337,2344,77,11,2060,-55,0,27
2338,2344,78,26,2060,-54,1,19
2339,2345,80,28,2064,-55,-1,17
2340,2346,82,26,2070,-54,3,7
2341,2347,96,24,2066,-56,5,-1
2342,2348,95,16,2041,-59,6,-12
2343,2349,94,3,2028,-60,4,-18
2344,2350,97,2,2056,-59,1,-20
2345,2351,100,7,2069,-57,2,-21
2346,2352,99,-1,2050,-59,4,-30
2347,2353,108,2,2046,-61,6,-37
2348,2354,93,-4,2058,-65,6,-46
2349,2355,99,-13,2049,-61,4,-55
2350,2356,111,-29,2044,-62,0,-54
2351,2357,110,-20,2065,-61,6,-55
2352,2359,109,-22,2057,-57,11,-54
2353,2360,110,-22,2073,-55,13,-54
2354,2361,105,-27,2073,-54,9,-60
2355,2362,118,-24,2066,-53,7,-64
2356,2363,112,-25,2052,-52,8,-62
2357,2364,120,-25,2052,-52,9,-65
2358,2365,118,-32,2065,-53,14,-69
2359,2366,112,-26,2077,-52,13,-74
2360,2367,116,-32,2071,-50,14,-79
2361,2368,120,-28,2055,-53,12,-80
2362,2369,116,-30,2060,-53,13,-70
2363,2370,127,-29,2060,-53,14,-71
2364,2371,115,-26,2054,-50,12,-81
2365,2372,115,-21,2040,-44,16,-90
2366,2373,118,-16,2052,-43,14,-94
2367,2374,119,-12,2042,-46,13,-101
2368,2375,117,-2,2045,-45,13,-112
2369,2376,106,-18,2064,-46,16,-121
2370,2377,104,-14,2047,-45,16,-126
2371,2378,115,-22,2035,-45,13,-133
2372,2379,105,-8,2060,-45,16,-144
2373,2380,94,-11,2075,-46,17,-153
2374,2381,95,-6,2073,-49,16,-164
2375,2382,94,-16,2061,-50,18,-174
2376,2383,91,-3,2070,-49,17,-184
2377,2384,101,4,2072,-49,20,-192
2378,2385,96,-9,2081,-47,21,-200
2379,2386,106,-1,2069,-47,18,-211
2380,2386,101,-4,2058,-51,17,-219
2381,2387,96,1,2059,-52,16,-229
2382,2388,94,7,2068,-50,17,-240
2383,2389,89,17,2056,-49,18,-252
2384,2390,82,9,2064,-48,18,-267
2385,2391,80,0,2065,-46,16,-275
2386,2392,75,-6,2074,-42,11,-283
2387,2393,76,-5,2050,-44,11,-291
2388,2394,70,-7,2056,-45,17,-298
2389,2395,60,10,2058,-43,17,-305
2390,2396,63,-1,2075,-47,11,-309
2391,2397,74,1,2058,-51,10,-314
2392,2398,60,12,2053,-50,11,-320
2393,2399,55,21,2051,-47,11,-323
2394,2401,60,9,2060,-49,11,-326
2395,2402,69,9,2060,-52,9,-327
2396,2403,64,22,2049,-55,6,-334
2397,2404,63,11,2039,-54,2,-338
2398,2405,46,11,2049,-51,1,-340
2399,2406,48,3,2059,-53,5,-337
2400,2407,51,19,2052,-54,2,-334
2401,2408,47,6,2054,-54,3,-341
2402,2409,55,2,2036,-50,4,-344
2403,2410,51,1,2059,-52,5,-345
2404,2411,48,6,2051,-52,3,-338
2405,2412,40,12,2055,-52,2,-335
2406,2413,53,-7,2048,-52,5,-335
2407,2414,54,-7,2082,-55,7,-335
2408,2415,43,2,2074,-55,5,-335
2409,2416,53,8,2077,-54,5,-337
2410,2417,64,-2,2068,-51,-2,-337
2411,2418,68,-9,2066,-45,0,-330
2412,2419,57,-5,2042,-47,5,-327
2413,2420,48,6,2041,-50,4,-328
2414,2421,55,-4,2063,-50,2,-328
2415,2422,49,-2,2073,-48,0,-329
2416,2423,52,-18,2063,-48,-1,-332
2417,2424,53,-29,2052,-47,2,-330
2418,2425,57,-15,2064,-49,6,-328
2419,2426,65,-8,2066,-49,3,-331
2420,2427,60,-17,2055,-53,1,-330
2421,2428,65,-27,2049,-54,-4,-332
2422,2428,65,-29,2042,-48,-7,-330
2423,2429,62,-29,2029,-46,-6,-330
2424,2430,65,-30,2048,-47,-7,-327
2425,2431,83,-31,2033,-47,-2,-326
2426,2432,69,-30,2057,-51,4,-326
2427,2433,64,-36,2048,-53,3,-331
2428,2434,76,-34,2029,-48,-3,-332
2429,2435,85,-43,2049,-47,-3,-331
2430,2436,85,-45,2075,-46,0,-331
2431,2437,92,-55,2068,-43,1,-333
2432,2438,94,-37,2062,-45,0,-334
2433,2439,107,-52,2052,-45,0,-338
2434,2440,110,-50,2060,-40,4,-344
2435,2441,109,-54,2054,-37,5,-345
2436,2443,103,-48,2053,-34,0,-343
2437,2444,104,-54,2058,-36,-2,-346
2438,2445,104,-39,2081,-36,-5,-345
2439,2446,120,-52,2075,-38,1,-343
2440,2447,113,-63,2060,-36,8,-340
2441,2448,113,-72,2061,-34,11,-344
2442,2449,108,-55,2055,-30,6,-347
2443,2450,110,-55,2042,-30,5,-348
2444,2451,123,-54,2059,-31,6,-344
2445,2452,119,-66,2059,-32,12,-345
2446,2453,116,-71,2061,-35,10,-349
2447,2454,115,-84,2062,-35,10,-352
2448,2455,115,-64,2056,-30,9,-355
2449,2456,108,-64,2058,-29,12,-356
2450,2457,96,-59,2057,-28,9,-354
2451,2458,93,-56,2060,-22,4,-357
2452,2459,88,-59,2061,-25,9,-359
2453,2460,103,-60,2057,-26,13,-362
2454,2461,100,-59,2054,-25,16,-365
2455,2462,98,-61,2054,-22,13,-367
2456,2463,87,-58,2051,-18,12,-366
2457,2464,88,-55,2048,-18,14,-369
2458,2465,85,-66,2050,-20,13,-373
2459,2466,78,-68,2053,-21,13,-371
2460,2467,79,-67,2055,-19,12,-372
2461,2468,76,-57,2048,-16,17,-372
2462,2469,71,-58,2045,-14,20,-375
2463,2470,65,-56,2045,-10,18,-377
2464,2470,52,-56,2049,-7,11,-380
2465,2471,44,-50,2052,-9,13,-382
2466,2472,60,-53,2058,-7,20,-383
2467,2473,47,-51,2057,-4,19,-379
2468,2474,44,-53,2044,-4,19,-381
2469,2475,64,-37,2053,-5,11,-380
2470,2476,51,-33,2048,-7,9,-379
2471,2477,35,-31,2056,-9,16,-381
2472,2478,42,-35,2058,-7,18,-382
2473,2479,34,-49,2052,-1,17,-379
2474,2480,29,-53,2071,-4,16,-374
2475,2481,42,-33,2073,-10,17,-369
2476,2482,48,-32,2060,-11,14,-368
2477,2483,37,-30,2055,-7,7,-364
2478,2485,29,-41,2068,-5,3,-362
2479,2486,37,-44,2059,-4,4,-358
2480,2487,34,-47,2059,-5,7,-353
2481,2488,25,-40,2035,-4,13,-350
2482,2489,30,-37,2046,2,13,-348
2483,2490,26,-32,2052,1,11,-341
2484,2491,26,-40,2051,-3,9,-332
2485,2492,28,-36,2056,-5,4,-324
2486,2493,24,-36,2063,-3,7,-319
2487,2494,16,-50,2063,-1,10,-311
2488,2495,31,-32,2049,5,11,-301
2489,2496,21,-31,2053,5,7,-295
2490,2497,14,-37,2051,7,2,-287
2491,2498,26,-51,2057,7,2,-278
2492,2499,25,-50,2057,6,0,-271
2493,2500,30,-50,2051,6,0,-266
2494,2501,28,-44,2040,9,3,-265
2495,2502,32,-32,2045,10,5,-258
2496,2503,30,-32,2039,9,2,-250
2497,2504,35,-40,2054,8,-1,-243
2498,2505,27,-44,2044,7,2,-239
2499,2506,27,-51,2050,10,4,-237
2500,2507,31,-43,2064,9,1,-234
2501,2508,43,-53,2076,7,-1,-225
2502,2509,61,-62,2076,13,4,-222
2503,2510,63,-45,2070,14,7,-217
2504,2511,60,-31,2060,11,6,-215
2505,2512,61,-49,2063,12,5,-213
2506,2512,61,-47,2047,15,-3,-208
2507,2513,69,-48,2038,20,-2,-202
2508,2514,77,-47,2042,23,2,-199
2509,2515,80,-54,2059,21,9,-195
2510,2516,77,-51,2076,20,10,-195
2511,2517,73,-55,2077,20,4,-193
2512,2518,90,-66,2055,20,6,-192
2513,2519,85,-61,2045,17,5,-192
2514,2520,86,-66,2055,17,4,-191
2515,2521,98,-78,2056,21,12,-185
2516,2522,92,-66,2040,26,13,-185
2517,2523,89,-70,2060,25,9,-189
2518,2524,94,-63,2074,25,10,-186
2519,2525,95,-54,2073,27,17,-186
2520,2527,99,-55,2055,30,14,-188
2521,2528,95,-56,2046,30,9,-190
2522,2529,87,-68,2056,30,10,-191
2523,2530,84,-50,2055,31,15,-190
2524,2531,80,-49,2059,37,15,-188
2525,2532,77,-50,2039,37,13,-189
2526,2533,91,-58,2044,33,16,-185
2527,2534,97,-56,2048,33,17,-184
2528,2535,84,-71,2058,31,14,-184
2529,2536,87,-69,2070,35,14,-189
2530,2537,93,-56,2053,36,15,-193
2531,2538,93,-48,2042,30,17,-194
2532,2539,83,-58,2048,28,16,-198
2533,2540,80,-45,2053,37,13,-204
2534,2541,78,-36,2068,43,9,-208
2535,2542,87,-51,2052,44,14,-206
2536,2543,75,-65,2066,43,16,-204
2537,2544,78,-62,2065,46,14,-209
2538,2545,68,-61,2045,50,14,-207
2539,2546,62,-40,2053,48,21,-208
2540,2547,53,-42,2073,46,23,-211
2541,2548,60,-42,2044,45,19,-216
2542,2549,58,-47,2053,45,14,-220
2543,2550,56,-33,2074,45,16,-222
2544,2551,65,-40,2060,47,13,-219
2545,2552,59,-39,2055,49,10,-219
2546,2553,44,-33,2050,53,7,-220
2547,2554,31,-18,2071,55,6,-224
2548,2555,42,-20,2062,53,7,-229
2549,2556,49,-18,2036,52,8,-234
2550,2557,39,-5,2047,51,9,-232
2551,2558,22,-23,2055,49,14,-232
2552,2559,21,-27,2050,50,17,-233
2553,2560,20,-16,2060,51,14,-234
2554,2561,24,-7,2060,50,13,-235
2555,2562,15,-12,2054,49,5,-238
2556,2563,29,-2,2060,47,0,-240
2557,2564,36,-10,2053,46,4,-243
2558,2565,31,3,2055,46,10,-245
2559,2566,28,3,2054,49,3,-242
2560,2567,27,7,2046,51,0,-232
2561,2568,9,7,2048,49,4,-233
2562,2569,6,10,2045,50,6,-234
2563,2570,12,6,2048,50,0,-235
2564,2571,26,7,2052,48,-10,-233
2565,2572,10,10,2053,49,-6,-229
2566,2573,15,12,2050,56,3,-224
2567,2574,37,12,2045,58,4,-222
2568,2575,28,14,2070,53,2,-213
2569,2576,17,22,2054,50,-1,-208
2570,2577,17,19,2046,48,-3,-206
2571,2578,34,20,2049,46,-7,-200
2572,2579,39,14,2051,50,-7,-191
2573,2580,36,18,2051,50,-5,-184
2574,2581,42,31,2065,47,-5,-180
2575,2582,44,31,2054,48,-6,-174
2576,2583,37,31,2058,46,-8,-169
2577,2584,48,27,2063,44,-9,-162
2578,2585,56,31,2060,45,-1,-156
2579,2586,62,21,2053,46,0,-152
2580,2587,63,30,2055,48,-5,-145
2581,2588,69,20,2055,46,-6,-138
2582,2589,76,20,2052,42,-1,-127
2583,2590,69,25,2053,40,-3,-124
2584,2591,73,14,2059,45,-3,-128
2585,2592,79,12,2069,48,-4,-125
2586,2593,78,7,2070,42,-3,-122
2587,2594,86,24,2043,43,-2,-119
2588,2595,96,11,2023,45,-4,-116
2589,2596,97,18,2047,45,-8,-115
2590,2596,109,13,2060,45,-9,-111
2591,2597,105,19,2051,42,-2,-110
2592,2598,103,9,2044,45,1,-109
2593,2599,97,1,2037,45,-1,-109
2594,2600,115,16,2035,41,5,-111
2595,2601,119,5,2041,44,10,-110
2596,2602,132,3,2051,49,8,-108
2597,2603,126,-8,2056,49,3,-112
2598,2604,120,-6,2065,47,2,-113
2599,2605,130,-4,2065,43,9,-113
2600,2606,124,-1,2050,46,11,-112
2601,2607,139,-9,2064,46,9,-114
2602,2608,146,-6,2055,46,10,-115
2603,2609,144,-16,2053,44,15,-114
2604,2611,134,-16,2068,44,17,-116
2605,2612,141,-13,2060,47,16,-123
2606,2613,135,-8,2047,44,14,-127
2607,2614,130,-15,2064,45,13,-128
2608,2615,125,-14,2050,48,17,-126
2609,2616,125,-11,2052,51,24,-129
2610,2617,137,-18,2052,51,21,-132
2611,2618,134,7,2066,50,22,-139
2612,2619,137,0,2073,47,23,-141
2613,2620,133,7,2055,45,25,-135
2614,2621,115,12,2062,49,25,-135
2615,2622,120,12,2061,50,25,-139
2616,2623,112,-4,2064,47,28,-151
2617,2624,113,4,2051,48,29,-156
2618,2625,114,0,2062,45,29,-160
2619,2626,100,5,2061,45,28,-168
2620,2627,105,9,2054,47,29,-171
2621,2628,95,8,2059,49,32,-178
2622,2629,99,18,2074,51,29,-180
2623,2630,91,29,2051,52,26,-178
2624,2631,73,29,2047,49,25,-182
2625,2632,73,22,2043,42,29,-190
2626,2633,74,30,2055,44,29,-197
2627,2634,61,27,2056,43,27,-204
2628,2635,60,29,2053,43,28,-208
2629,2636,40,37,2067,42,30,-210
2630,2637,46,24,2076,42,29,-220
2631,2638,45,32,2063,43,27,-229
2632,2638,43,23,2064,42,25,-232
2633,2639,30,35,2069,41,25,-233
2634,2640,33,39,2065,43,22,-235
2635,2641,29,31,2040,45,18,-239
2636,2642,24,45,2048,41,18,-249
2637,2643,16,48,2058,39,20,-255
2638,2644,17,58,2070,36,18,-253
2639,2645,21,44,2058,36,12,-253
2640,2646,28,37,2067,39,14,-257
2641,2647,27,46,2075,37,12,-261
2642,2648,21,47,2058,31,14,-258
2643,2649,37,53,2071,37,13,-257
2644,2650,27,49,2058,40,12,-257
2645,2651,35,60,2055,37,7,-257
2646,2653,35,52,2052,38,4,-251
2647,2654,20,52,2054,38,7,-250
2648,2655,20,47,2057,36,5,-248
2649,2656,33,52,2062,32,7,-246
2650,2657,29,58,2046,30,10,-244
2651,2658,32,41,2050,32,8,-242
2652,2659,34,47,2047,28,7,-241
2653,2660,48,34,2045,26,8,-237
2654,2661,47,50,2053,29,2,-231
2655,2662,52,48,2050,29,-3,-226
2656,2663,40,49,2047,32,-1,-224
2657,2664,49,52,2051,33,3,-220
2658,2665,38,55,2055,30,8,-214
2659,2666,45,51,2041,28,3,-203
2660,2667,54,39,2055,28,-2,-197
2661,2668,57,40,2051,26,4,-188
2662,2669,60,43,2038,25,13,-181
2663,2670,58,46,2049,21,15,-175
2664,2671,60,45,2041,23,11,-172
2665,2672,60,46,2040,26,9,-163
2666,2673,53,48,2055,26,9,-155
2667,2674,65,32,2047,24,12,-145
2668,2675,77,37,2046,23,12,-140
2669,2676,64,40,2050,18,13,-133
2670,2677,55,43,2057,20,10,-124
2671,2678,60,37,2053,20,8,-120
2672,2679,54,28,2061,22,13,-110
2673,2680,61,33,2063,19,11,-102
2674,2680,67,34,2058,20,16,-96
2675,2681,71,52,2048,17,16,-94
2676,2682,75,55,2071,19,10,-91
2677,2683,65,50,2065,23,9,-90
2678,2684,70,64,2077,21,14,-84
2679,2685,73,52,2068,17,19,-77
2680,2686,75,57,2063,15,17,-73
2681,2687,68,59,2048,16,15,-67
2682,2688,61,48,2050,15,14,-58
2683,2689,61,48,2041,15,21,-51
2684,2690,65,56,2054,16,24,-49
2685,2691,72,69,2071,11,23,-48
2686,2692,70,68,2065,9,22,-45
2687,2693,59,65,2047,10,22,-39
2688,2695,66,72,2043,9,21,-32
2689,2696,74,87,2046,9,21,-24
2690,2697,67,84,2054,9,25,-21
2691,2698,70,76,2062,13,23,-21
2692,2699,73,79,2044,14,19,-16
2693,2700,60,77,2046,11,20,-12
2694,2701,52,88,2047,7,19,-7
2695,2702,70,100,2052,6,20,4
2696,2703,63,107,2036,4,23,3
2697,2704,49,105,2039,2,26,3
2698,2705,51,102,2038,-5,24,4
2699,2706,54,101,2028,-5,25,3
2700,2707,54,119,2039,-6,25,4
2701,2708,57,125,2060,-7,25,7
2702,2709,55,112,2047,-10,23,5
2703,2710,57,115,2037,-13,22,6
2704,2711,54,97,2045,-13,25,8
2705,2712,66,94,2037,-14,27,14
2706,2713,65,114,2054,-15,22,22
2707,2714,59,113,2047,-19,16,24
2708,2715,61,115,2053,-21,16,24
2709,2716,68,108,2060,-20,13,27
2710,2717,70,88,2053,-21,17,28
2711,2718,66,83,2043,-28,21,27
2712,2719,56,96,2047,-28,20,35
2713,2720,57,99,2054,-29,20,41
2714,2721,65,80,2048,-27,23,43
2715,2722,80,80,2047,-27,29,46
2716,2722,74,67,2062,-27,23,44
2717,2723,69,73,2048,-25,22,40
2718,2724,79,67,2055,-24,28,40
2719,2725,89,65,2065,-24,26,41
2720,2726,95,56,2048,-31,19,46
2721,2727,89,54,2043,-35,17,50
2722,2728,98,68,2048,-34,21,48
2723,2729,93,59,2049,-34,24,44
2724,2730,98,52,2041,-31,22,39
2725,2731,106,45,2055,-30,22,36
2726,2732,122,38,2059,-33,25,30
2727,2733,122,40,2072,-36,24,28
2728,2734,139,46,2064,-37,24,30
2729,2735,150,41,2060,-36,26,31
2730,2737,148,38,2054,-39,29,27
2731,2738,154,36,2052,-39,35,23
2732,2739,164,29,2047,-42,41,22
2733,2740,160,15,2046,-46,42,16
2734,2741,168,10,2033,-43,39,11
2735,2742,173,7,2049,-44,36,9
2736,2743,157,25,2072,-43,33,5
2737,2744,151,20,2053,-41,35,-3
2738,2745,141,21,2057,-40,38,-10
2739,2746,144,9,2056,-40,41,-17
2740,2747,156,20,2050,-37,45,-27
2741,2748,150,30,2044,-39,45,-39
2742,2749,144,33,2054,-45,46,-50
2743,2750,145,42,2050,-46,44,-56
2744,2751,135,44,2064,-39,41,-64
2745,2752,132,38,2073,-35,44,-72
2746,2753,115,35,2067,-37,44,-82
2747,2754,119,40,2058,-39,47,-91
2748,2755,107,52,2051,-41,48,-102
2749,2756,111,52,2053,-46,47,-113
2750,2757,108,61,2064,-42,49,-123
2751,2758,101,54,2053,-40,53,-133
2752,2759,92,62,2064,-44,55,-143
2753,2760,93,74,2071,-50,57,-150
2754,2761,76,76,2064,-51,55,-156
2755,2762,78,81,2040,-46,50,-167
2756,2763,65,73,2050,-47,44,-181
2757,2764,45,84,2055,-48,41,-188
2758,2764,45,86,2062,-48,44,-200
2759,2765,41,80,2048,-48,46,-210
2760,2766,36,80,2061,-54,35,-218
2761,2767,23,94,2064,-59,40,-228
2762,2768,21,99,2047,-60,44,-240
2763,2769,12,97,2053,-61,38,-249
2764,2770,22,98,2056,-63,32,-258
2765,2771,17,116,2040,-70,31,-268
2766,2772,22,100,2034,-67,32,-275
2767,2773,14,97,2049,-61,34,-285
2768,2774,4,99,2060,-65,31,-294
2769,2775,0,114,2066,-70,29,-300
2770,2776,-4,118,2050,-71,23,-312
2771,2777,-2,128,2048,-71,23,-321
2772,2779,12,116,2057,-76,24,-332
2773,2780,10,112,2071,-76,21,-339
2774,2781,-5,94,2060,-74,21,-344
2775,2782,-6,95,2066,-81,17,-350
2776,2783,-13,111,2057,-83,10,-353
2777,2784,-11,119,2055,-89,11,-364
2778,2785,-3,122,2050,-88,10,-374
2779,2786,8,95,2064,-84,6,-382
2780,2787,9,91,2067,-85,6,-382
2781,2788,7,95,2069,-91,5,-385
2782,2789,14,94,2060,-98,3,-391
2783,2790,14,86,2072,-100,-1,-399
2784,2791,12,79,2063,-99,-3,-405
2785,2792,17,80,2065,-100,-7,-411
2786,2793,26,80,2058,-101,-12,-413
2787,2794,40,75,2068,-100,-6,-413
2788,2795,49,77,2066,-98,-2,-418
2789,2796,50,75,2065,-102,-6,-425
2790,2797,54,70,2055,-110,-6,-436
2791,2798,63,69,2054,-109,-2,-451
2792,2799,76,56,2036,-109,-5,-458
2793,2800,91,68,2053,-107,-8,-469
2794,2801,99,59,2078,-105,-6,-480
2795,2802,98,45,2083,-109,-5,-484
2796,2803,98,40,2070,-107,-11,-494
2797,2804,102,32,2068,-109,-14,-501
2798,2805,110,32,2048,-113,-12,-517
2799,2806,103,40,2043,-112,-9,-530
2800,2806,106,45,2060,-112,-6,-540
2801,2807,100,46,2075,-109,-3,-551
2802,2808,113,23,2072,-113,5,-562
2803,2809,118,18,2063,-109,3,-576
2804,2810,124,21,2061,-110,7,-589
2805,2811,126,16,2043,-111,6,-597
2806,2812,127,22,2045,-113,3,-607
2807,2813,114,15,2061,-114,-2,-613
2808,2814,101,11,2061,-115,-7,-615
2809,2815,110,8,2057,-116,-11,-625
2810,2816,103,15,2057,-116,-10,-634
2811,2817,102,3,2058,-113,-5,-643
2812,2818,93,17,2070,-112,-6,-658
2813,2819,89,15,2061,-116,-9,-669
2814,2821,96,7,2057,-114,-8,-679
2815,2822,108,13,2055,-113,-6,-690
2816,2823,94,20,2080,-110,-5,-704
2817,2824,102,33,2085,-112,-5,-721
2818,2825,88,31,2055,-112,-5,-741
2819,2826,84,40,2059,-117,-8,-762
2820,2827,92,36,2073,-119,-10,-773
2821,2828,77,38,2068,-118,-6,-785
2822,2829,80,44,2077,-120,-7,-797
2823,2830,81,38,2064,-118,-7,-814
2824,2831,75,38,2055,-119,-7,-830
2825,2832,63,22,2070,-123,-7,-843
2826,2833,70,34,2073,-129,-8,-854
2827,2834,75,39,2055,-130,-13,-867
2828,2835,69,44,2069,-122,-18,-881
2829,2836,61,39,2064,-120,-18,-894
2830,2837,41,38,2052,-123,-12,-908
2831,2838,45,43,2044,-128,-8,-922
2832,2839,62,53,2057,-126,-12,-937
2833,2840,58,47,2052,-127,-14,-954
2834,2841,50,39,2047,-128,-17,-965
2835,2842,43,35,2068,-130,-15,-978
2836,2843,44,43,2056,-131,-14,-995
2837,2844,46,35,2048,-130,-16,-1012
2838,2845,54,34,2046,-129,-21,-1023
2839,2846,50,25,2059,-127,-23,-1026
2840,2847,61,16,2056,-128,-30,-1031
2841,2848,44,24,2049,-129,-33,-1043
2842,2848,38,23,2039,-135,-28,-1053
2843,2849,40,8,2053,-135,-26,-1057
2844,2850,29,6,2043,-133,-28,-1067
2845,2851,38,21,2046,-134,-27,-1081
2846,2852,35,22,2046,-138,-29,-1092
2847,2853,41,19,2048,-140,-33,-1101
2848,2854,50,-2,2035,-135,-38,-1110
2849,2855,37,-1,2032,-134,-41,-1115
2850,2856,38,-1,2039,-136,-39,-1120
2851,2857,39,-5,2053,-137,-37,-1129
2852,2858,28,3,2043,-136,-47,-1144
2853,2859,26,3,2057,-133,-55,-1158
2854,2860,41,-1,2077,-138,-57,-1171
2855,2861,34,1,2061,-133,-56,-1185
2856,2863,11,-24,2081,-131,-53,-1193
2857,2864,14,-16,2058,-131,-48,-1196
2858,2865,9,-13,2056,-128,-50,-1205
2859,2866,4,-17,2052,-126,-51,-1218
2860,2867,6,-21,2062,-126,-51,-1235
2861,2868,-1,-39,2042,-131,-51,-1249
2862,2869,17,-29,2056,-138,-55,-1265
2863,2870,15,-22,2061,-139,-57,-1279
2864,2871,13,-10,2073,-137,-63,-1291
2865,2872,21,-24,2095,-133,-67,-1299
2866,2873,33,-33,2110,-123,-71,-1307
2867,2874,21,-36,2093,-119,-70,-1320
2868,2875,26,-28,2104,-127,-66,-1329
2869,2876,31,-32,2114,-132,-68,-1326
2870,2877,26,-26,2098,-134,-74,-1328
2871,2878,36,-49,2091,-132,-71,-1333
2872,2879,44,-43,2081,-131,-68,-1341
2873,2880,39,-52,2066,-129,-66,-1349
2874,2881,39,-45,2074,-128,-67,-1357
2875,2882,44,-33,2084,-128,-76,-1362
2876,2883,52,-29,2082,-127,-76,-1369
2877,2884,56,-50,2076,-128,-72,-1377
2878,2885,60,-47,2085,-133,-76,-1387
2879,2886,76,-56,2074,-134,-81,-1389
2880,2887,69,-55,2079,-130,-87,-1388
2881,2888,72,-61,2065,-128,-88,-1389
2882,2889,59,-71,2070,-128,-80,-1392
2883,2890,64,-73,2063,-125,-77,-1399
2884,2892,66,-80,2064,-116,-78,-1402
2885,2893,71,-89,2057,-117,-78,-1402
2886,2894,97,-73,2068,-117,-80,-1402
2887,2895,111,-88,2071,-112,-74,-1399
2888,2896,110,-102,2056,-110,-72,-1397
2889,2897,100,-105,2044,-112,-71,-1396
2890,2898,109,-99,2052,-112,-79,-1394
2891,2899,108,-97,2048,-108,-80,-1401
2892,2900,105,-103,2043,-107,-70,-1409
2893,2901,106,-107,2039,-104,-69,-1410
2894,2902,109,-112,2041,-100,-69,-1409
2895,2903,113,-102,2035,-95,-69,-1409
2896,2904,120,-113,2045,-97,-66,-1410
2897,2905,121,-120,2044,-97,-69,-1409
2898,2905,114,-122,2025,-99,-68,-1411
2899,2906,100,-118,2050,-93,-67,-1405
2900,2907,99,-107,2050,-94,-74,-1400
2901,2908,90,-109,2037,-93,-71,-1393
2902,2909,89,-99,2047,-92,-64,-1391
2903,2910,107,-102,2057,-87,-65,-1388
2904,2911,109,-116,2063,-87,-59,-1382
2905,2912,101,-125,2066,-86,-56,-1371
2906,2913,106,-119,2056,-86,-59,-1360
2907,2914,109,-108,2073,-86,-62,-1351
2908,2915,101,-97,2072,-85,-60,-1346
2909,2916,87,-110,2075,-79,-60,-1338
2910,2917,84,-125,2061,-75,-56,-1329
2911,2918,95,-122,2082,-74,-55,-1317
2912,2919,96,-135,2069,-72,-60,-1305
2913,2920,99,-126,2058,-70,-58,-1287
2914,2921,88,-116,2062,-68,-55,-1275
2915,2922,94,-100,2075,-69,-49,-1275
2916,2923,92,-111,2053,-69,-45,-1276
2917,2924,93,-136,2058,-68,-44,-1267
2918,2925,102,-126,2062,-69,-45,-1253
2919,2926,110,-129,2062,-63,-48,-1239
2920,2927,100,-114,2063,-59,-45,-1233
2921,2928,97,-126,2052,-57,-44,-1228
2922,2929,109,-133,2033,-51,-45,-1224
2923,2930,108,-133,2048,-48,-45,-1222
2924,2931,96,-126,2048,-45,-42,-1211
2925,2932,92,-114,2040,-41,-40,-1200
2926,2932,83,-123,2046,-39,-37,-1194
2927,2933,96,-132,2042,-42,-33,-1194
2928,2934,97,-137,2038,-38,-37,-1192
2929,2935,109,-126,2025,-40,-34,-1180
2930,2936,108,-133,2041,-42,-37,-1167
2931,2937,107,-126,2042,-37,-40,-1163
2932,2938,93,-124,2034,-35,-34,-1166
2933,2939,82,-139,2043,-34,-31,-1173
2934,2940,90,-129,2059,-31,-29,-1171
2935,2941,91,-126,2048,-28,-26,-1164
2936,2942,93,-124,2055,-26,-29,-1156
2937,2943,114,-134,2067,-24,-31,-1148
2938,2944,104,-131,2062,-26,-30,-1146
2939,2945,85,-126,2055,-22,-31,-1151
2940,2947,82,-133,2056,-18,-28,-1151
2941,2948,91,-126,2058,-14,-30,-1150
2942,2949,91,-113,2063,-12,-28,-1141
2943,2950,87,-122,2056,-16,-23,-1128
2944,2951,91,-136,2057,-20,-28,-1116
2945,2952,102,-134,2072,-16,-31,-1107
2946,2953,101,-119,2065,-11,-26,-1099
2947,2954,89,-114,2058,-5,-26,-1079
2948,2955,88,-102,2061,-2,-22,-1068
2949,2956,72,-116,2079,-3,-22,-1058
2950,2957,93,-113,2055,-3,-20,-1044
2951,2958,90,-117,2063,6,-20,-1024
2952,2959,92,-122,2063,6,-18,-1012
2953,2960,99,-111,2047,4,-16,-997
2954,2961,95,-116,2044,2,-15,-976
2955,2962,84,-119,2044,9,-17,-962
2956,2963,82,-126,2044,13,-20,-954
2957,2964,81,-108,2045,13,-19,-942
2958,2965,84,-105,2052,13,-15,-919
2959,2966,84,-100,2033,14,-8,-898
2960,2967,98,-106,2036,15,-5,-889
2961,2968,109,-115,2033,18,-5,-880
2962,2969,89,-112,2039,27,-7,-875
2963,2970,84,-99,2055,23,-6,-872
2964,2971,93,-101,2041,24,-6,-861
2965,2972,97,-100,2041,28,-2,-851
2966,2973,100,-98,2040,30,-5,-848
2967,2974,107,-88,2046,33,-7,-843
2968,2974,103,-86,2043,32,0,-837
2969,2975,99,-94,2035,32,2,-829
2970,2976,88,-90,2037,34,1,-818
2971,2977,78,-90,2027,33,6,-807
2972,2978,60,-83,2053,37,7,-797
2973,2979,77,-90,2067,41,4,-792
2974,2980,76,-76,2067,41,9,-781
2975,2981,78,-79,2055,41,13,-766
2976,2982,81,-87,2039,42,11,-755
2977,2983,70,-85,2054,44,8,-741
2978,2984,59,-86,2063,47,6,-728
2979,2985,53,-67,2074,48,5,-713
2980,2986,53,-79,2067,51,9,-694
2981,2987,50,-73,2056,50,14,-676
2982,2989,49,-74,2050,48,19,-657
2983,2990,47,-80,2045,47,20,-631
2984,2991,43,-98,2062,49,13,-605
2985,2992,54,-83,2062,53,16,-582
2986,2993,45,-81,2058,57,17,-560
2987,2994,49,-77,2060,60,18,-536
2988,2995,50,-91,2048,61,15,-517
2989,2996,43,-93,2055,58,18,-496
2990,2997,45,-100,2070,60,25,-471
2991,2998,40,-83,2063,61,32,-447
2992,2999,53,-89,2056,63,30,-429
2993,3000,46,-90,2062,67,29,-408
2994,3001,38,-76,2051,66,23,-386
2995,3002,29,-77,2056,70,26,-371
2996,3003,44,-78,2054,71,29,-352
2997,3004,46,-85,2059,73,30,-334
2998,3005,37,-68,2048,73,33,-314
2999,3006,24,-82,2047,77,36,-296
3000,3007,40,-94,2052,78,35,-277
3001,3008,57,-96,2054,78,38,-260
3002,3009,56,-78,2039,76,35,-245
3003,3010,37,-76,2050,76,34,-230
3004,3011,36,-60,2070,79,33,-214
3005,3012,34,-69,2065,84,36,-203
3006,3013,31,-71,2061,86,42,-194
3007,3014,37,-59,2066,88,41,-183
3008,3015,39,-61,2062,89,31,-170
3009,3016,51,-61,2089,93,37,-159
3010,3016,49,-45,2054,89,45,-156
3011,3017,47,-39,2063,90,41,-152
3012,3018,40,-42,2048,94,38,-146
3013,3019,35,-56,2053,94,38,-136
3014,3020,50,-47,2057,91,39,-128
3015,3021,44,-42,2046,87,37,-121
3016,3022,42,-35,2065,87,35,-114
3017,3023,42,-39,2070,88,36,-116
3018,3024,40,-27,2073,92,36,-116
3019,3025,52,-31,2062,93,36,-116
3020,3026,50,-10,2058,91,40,-116
3021,3027,39,-6,2057,94,41,-113
3022,3028,41,-3,2075,93,36,-112
3023,3029,46,-6,2070,97,39,-107
3024,3031,50,9,2057,98,39,-105
3025,3032,48,15,2057,96,33,-110
3026,3033,43,34,2066,96,34,-114
3027,3034,30,29,2051,94,31,-118
3028,3035,27,25,2041,91,28,-121
3029,3036,34,47,2042,90,29,-120
3030,3037,35,52,2045,90,29,-122
3031,3038,38,72,2039,88,31,-129
3032,3039,45,59,2057,87,32,-135
3033,3040,57,62,2042,88,27,-140
3034,3041,49,63,2045,89,24,-144
3035,3042,43,68,2027,92,23,-149
3036,3043,42,68,2033,91,27,-153
3037,3044,39,72,2050,91,29,-149
3038,3045,50,77,2054,91,23,-152
3039,3046,53,79,2052,89,18,-160
3040,3047,70,75,2044,86,18,-165
3041,3048,66,76,2050,81,18,-169
3042,3049,70,70,2065,75,19,-173
3043,3050,73,80,2058,74,23,-174
3044,3051,51,84,2066,77,26,-174
3045,3052,62,85,2059,80,22,-175
3046,3053,63,89,2052,78,27,-178
3047,3054,72,80,2059,74,29,-181
3048,3055,81,87,2052,71,21,-183
3049,3056,82,99,2057,69,23,-188
3050,3057,78,90,2053,71,26,-189
3051,3058,61,94,2071,72,24,-188
3052,3058,50,91,2064,66,28,-192
3053,3059,57,88,2057,62,29,-195
3054,3060,56,98,2066,61,23,-189
3055,3061,63,100,2062,60,24,-181
3056,3062,65,94,2050,60,22,-179
3057,3063,76,86,2070,60,18,-197
3058,3064,44,102,2047,60,24,-222
3059,3065,-23,116,2063,64,41,-246
3060,3066,-92,119,2086,69,58,-256
3061,3067,-127,127,2082,62,65,-258
3062,3068,-119,129,2060,55,62,-263
3063,3069,-109,126,2071,49,51,-291
3064,3070,-95,136,2056,48,41,-321
3065,3071,-82,130,2048,45,30,-328
3066,3073,-77,114,2036,34,7,-322
3067,3074,-69,82,2038,29,-23,-325
3068,3075,-69,92,2036,27,-55,-334
3069,3076,-98,84,2028,36,-71,-335
3070,3077,-106,85,2017,41,-74,-324
3071,3078,-101,110,2034,46,-66,-311
3072,3079,-107,117,2052,51,-60,-296
3073,3080,-94,143,2052,55,-52,-277
3074,3081,-82,183,2045,60,-34,-262
3075,3082,-76,197,2031,54,-16,-236
3076,3083,-54,196,2060,40,-10,-219
3077,3084,-69,207,2065,28,-4,-206
3078,3085,-101,209,2057,25,4,-199
3079,3086,-125,248,2053,17,4,-197
3080,3087,-156,277,2033,8,-1,-195
3081,3088,-160,256,2060,3,-14,-207
3082,3089,-167,238,2053,-6,-30,-234
3083,3090,-166,241,2068,-6,-42,-264
3084,3091,-152,247,2063,-9,-57,-297
3085,3092,-158,276,2077,-12,-72,-331
3086,3093,-175,283,2081,-16,-85,-354
3087,3094,-183,278,2111,-15,-91,-362
3088,3095,-178,275,2083,-18,-90,-383
3089,3096,-197,279,2064,-21,-89,-402
3090,3097,-212,302,2037,-28,-85,-417
3091,3098,-198,325,2046,-33,-77,-417
3092,3099,-172,331,2051,-38,-75,-406
3093,3100,-165,324,2036,-49,-74,-401
3094,3100,-173,324,2037,-53,-78,-408
3095,3101,-192,316,2037,-63,-75,-414
3096,3102,-213,328,2014,-69,-82,-413
3097,3103,-213,344,2016,-77,-95,-396
3098,3104,-225,329,2005,-83,-102,-370
3099,3105,-248,315,2012,-81,-110,-355
3100,3106,-218,326,2005,-77,-119,-352
3101,3107,-207,350,2008,-81,-129,-346
3102,3108,-222,375,2020,-80,-143,-330
3103,3109,-213,368,2013,-81,-156,-312
3104,3110,-199,364,2003,-85,-165,-296
3105,3111,-207,375,2008,-90,-164,-281
3106,3112,-206,368,2019,-102,-168,-262
3107,3113,-199,409,2017,-113,-172,-245
3108,3115,-193,445,2012,-123,-171,-225
3109,3116,-201,443,2025,-126,-166,-203
3110,3117,-179,430,2041,-137,-158,-183
3111,3118,-170,428,2048,-144,-152,-168
3112,3119,-182,410,2073,-146,-146,-152
3113,3120,-170,405,2062,-157,-152,-132
3114,3121,-146,421,2056,-166,-162,-109
3115,3122,-142,401,2069,-169,-174,-83
3116,3123,-136,395,2039,-175,-174,-50
3117,3124,-137,392,2044,-182,-177,-17
3118,3125,-136,388,2031,-190,-184,13
3119,3126,-133,386,2046,-200,-183,45
3120,3127,-138,378,2028,-207,-183,80
3121,3128,-135,358,2043,-209,-187,120
3122,3129,-122,345,2043,-211,-187,163
3123,3130,-97,328,2038,-218,-185,202
3124,3131,-86,310,2041,-227,-180,246
3125,3132,-80,284,2038,-238,-173,283
3126,3133,-82,286,2039,-244,-175,321
3127,3134,-80,280,2023,-247,-178,359
3128,3135,-73,260,2021,-251,-175,396
3129,3136,-69,230,2012,-246,-174,435
3130,3137,-50,219,2026,-250,-179,466
3131,3138,-39,217,2006,-252,-189,498
3132,3139,-11,205,2020,-249,-195,532
3133,3140,-4,175,2012,-252,-193,561
3134,3141,1,159,2022,-255,-189,591
3135,3142,-4,134,2018,-259,-188,627
3136,3142,12,129,2015,-258,-189,657
3137,3143,24,115,2015,-267,-195,694
3138,3144,74,78,1996,-279,-202,746
3139,3145,152,43,2011,-279,-200,793
3140,3146,201,19,2012,-270,-206,817
3141,3147,207,17,2032,-262,-205,814
3142,3148,167,8,2048,-257,-194,816
3143,3149,149,-18,2061,-258,-179,842
3144,3150,144,-57,2086,-264,-163,859
3145,3151,143,-77,2060,-265,-145,861
3146,3152,173,-62,2035,-258,-124,865
3147,3153,227,-24,2049,-253,-113,873
3148,3154,249,-29,2075,-256,-112,884
3149,3155,245,-79,2055,-259,-119,902
3150,3157,252,-152,2045,-264,-128,915
3151,3158,262,-182,2059,-269,-125,916
3152,3159,277,-167,2057,-272,-125,916
3153,3160,287,-169,2048,-273,-137,923
3154,3161,306,-208,2058,-266,-144,925
3155,3162,285,-261,2067,-261,-138,929
3156,3163,274,-302,2069,-253,-121,936
3157,3164,266,-301,2058,-247,-102,955
3158,3165,270,-272,2052,-240,-88,972
3159,3166,279,-259,2049,-223,-75,977
3160,3167,275,-287,2052,-207,-67,978
3161,3168,275,-306,2036,-195,-61,994
3162,3169,291,-308,2034,-193,-55,1014
3163,3170,300,-312,2029,-193,-55,1027
3164,3171,294,-287,2035,-195,-59,1039
3165,3172,284,-269,2058,-195,-65,1052
3166,3173,274,-261,2060,-198,-77,1055
3167,3174,267,-276,2045,-196,-72,1056
3168,3175,236,-290,2059,-190,-67,1056
3169,3176,225,-284,2058,-185,-63,1050
3170,3177,239,-275,2038,-173,-54,1042
3171,3178,231,-263,2062,-164,-44,1032
3172,3179,253,-272,2086,-158,-39,1023
3173,3180,270,-272,2093,-156,-42,1011
3174,3181,259,-284,2072,-146,-44,1006
3175,3182,258,-263,2078,-138,-40,1004
3176,3183,245,-220,2091,-139,-29,997
3177,3184,214,-207,2080,-142,-25,985
3178,3184,194,-196,2071,-142,-22,973
3179,3185,187,-190,2099,-141,-21,967
3180,3186,171,-181,2094,-142,-15,965
3181,3187,160,-163,2063,-145,-13,958
3182,3188,169,-159,2057,-144,-8,951
3183,3189,163,-175,2073,-143,-11,947
3184,3190,150,-185,2063,-141,-14,945
3185,3191,148,-187,2061,-144,-15,935
3186,3192,139,-161,2075,-141,-26,926
3187,3193,136,-171,2069,-137,-32,916
3188,3194,128,-160,2064,-131,-31,908
3189,3195,106,-167,2057,-117,-30,900
3190,3196,96,-167,2070,-104,-29,892
3191,3197,93,-130,2067,-101,-25,881
3192,3199,90,-131,2058,-102,-22,873
3193,3200,113,-129,2040,-99,-30,868
3194,3201,117,-113,2063,-93,-32,858
3195,3202,116,-85,2050,-92,-29,846
3196,3203,116,-51,2046,-97,-30,836
3197,3204,119,-43,2058,-103,-34,823
3198,3205,121,-47,2062,-105,-42,808
3199,3206,110,-45,2056,-112,-47,794
3200,3207,109,-41,2067,-117,-49,783
3201,3208,128,-44,2066,-117,-48,761
3202,3209,129,-53,2071,-115,-45,740
3203,3210,144,-67,2064,-116,-37,722
3204,3211,133,-62,2044,-110,-30,697
3205,3212,149,-65,2044,-103,-34,669
3206,3213,142,-59,2059,-103,-37,647
3207,3214,133,-70,2062,-103,-33,631
3208,3215,151,-39,2043,-101,-30,612
3209,3216,143,-31,2060,-92,-26,589
3210,3217,150,-30,2054,-88,-26,568
3211,3218,154,-24,2054,-89,-28,558
3212,3219,154,-32,2042,-95,-23,554
3213,3220,158,-11,2033,-103,-22,548
3214,3221,149,10,2049,-108,-23,532
3215,3222,143,8,2051,-110,-27,519
3216,3223,143,-12,2048,-111,-27,509
3217,3224,159,-39,2048,-112,-26,496
3218,3225,342,-83,2073,-118,-33,459
3219,3226,514,-123,2117,-105,-35,418
3220,3226,502,-278,2130,-81,5,384
3221,3227,556,-442,2128,-56,52,378
3222,3228,561,-552,2121,-40,76,385
3223,3229,575,-622,2140,-26,82,401
3224,3230,594,-702,2176,-6,90,417
3225,3231,637,-756,2189,11,95,441
3226,3232,627,-822,2182,24,95,484
3227,3233,622,-863,2158,28,73,544
3228,3234,578,-843,2146,30,54,619
3229,3235,509,-785,2140,32,46,686
3230,3236,447,-734,2157,31,46,729
3231,3237,455,-679,2150,28,53,756
3232,3238,442,-655,2135,24,63,776
3233,3239,428,-638,2131,24,75,791
3234,3240,425,-614,2141,30,90,793
3235,3241,445,-574,2139,42,98,771
3236,3242,472,-509,2119,53,92,724
3237,3243,492,-453,2049,63,96,650
3238,3244,499,-445,2017,84,107,571
3239,3245,463,-464,1980,102,118,504
3240,3246,463,-466,1975,110,126,448
3241,3247,461,-442,1984,120,124,393
3242,3248,467,-393,1975,134,116,337
3243,3249,462,-366,1997,139,114,285
3244,3250,453,-381,1969,136,121,246
3245,3251,441,-424,1942,130,123,222
3246,3252,405,-436,1942,122,124,207
3247,3253,370,-435,1948,118,136,192
3248,3255,349,-432,1972,115,153,166
3249,3256,353,-466,1974,117,160,128
3250,3257,360,-503,1972,128,157,90
3251,3258,361,-530,1980,142,149,56
3252,3259,348,-547,1970,152,141,31
3253,3260,348,-524,1973,167,138,1
3254,3261,337,-508,1991,181,137,-42
3255,3262,307,-481,2021,199,137,-105
3256,3263,253,-423,2060,216,141,-163
3257,3264,204,-361,2076,229,151,-206
3258,3265,146,-286,2067,239,165,-235
3259,3266,122,-254,2075,241,178,-264
3260,3267,128,-201,2089,237,180,-303
3261,3268,153,-162,2097,223,174,-351
3262,3268,205,-128,2108,210,154,-406
3263,3269,229,-112,2094,198,128,-460
3264,3270,232,-129,2100,188,108,-510
3265,3271,201,-130,2109,188,97,-560
3266,3272,144,-114,2110,192,94,-625
3267,3273,80,-75,2122,208,103,-702
3268,3274,22,-40,2110,220,123,-771
3269,3275,-6,-19,2116,229,146,-830
3270,3276,-51,-16,2106,238,169,-873
3271,3277,-101,34,2101,246,199,-896
3272,3278,-63,60,2119,247,208,-905
3273,3279,9,98,2120,238,184,-928
3274,3280,49,110,2129,224,154,-963
3275,3281,64,100,2105,210,125,-974
3276,3282,108,131,2161,194,83,-952
3277,3283,127,137,2191,184,29,-946
3278,3284,44,135,2143,181,12,-987
3279,3285,-110,136,2098,183,39,-1045
3280,3286,-255,241,2100,212,87,-1103
3281,3287,-431,385,2087,241,138,-1113
3282,3288,-426,396,2064,243,174,-1080
3283,3289,-383,318,2073,223,194,-1072
3284,3290,-225,152,2092,194,190,-1123
3285,3291,-37,170,2161,166,157,-1169
3286,3292,-8,312,2174,157,112,-1189
3287,3293,21,397,2077,168,51,-1171
3288,3294,-111,490,2099,176,-1,-1167
3289,3295,-242,318,2067,153,-45,-1222
3290,3297,-313,249,2045,137,-53,-1300
3291,3298,-341,337,2057,146,-29,-1343
3292,3299,-303,462,2042,159,2,-1340
3293,3300,-248,515,2083,167,19,-1323
3294,3301,-239,442,2088,170,33,-1331
3295,3302,-202,296,2081,151,40,-1342
3296,3303,-176,327,2055,133,46,-1347
3297,3304,-168,393,2040,116,42,-1346
3298,3305,-146,438,2058,107,19,-1343
3299,3306,-168,383,2062,99,-4,-1335
3300,3307,-193,252,2001,102,-23,-1323
3301,3308,-190,196,1922,96,-26,-1314
3302,3309,-196,227,1920,92,-25,-1295
3303,3310,-191,243,1978,96,-26,-1274
3304,3310,-206,236,2042,103,-24,-1257
3305,3311,-236,190,2052,108,-22,-1230
3306,3312,-211,147,2062,109,-18,-1189
3307,3313,-206,127,2061,104,-24,-1140
3308,3314,-214,108,2051,93,-28,-1095
3309,3315,-155,70,2046,86,-46,-1042
3310,3316,-198,44,2021,85,-57,-1000
3311,3317,-234,-16,2012,84,-61,-967
3312,3318,-236,-37,2049,85,-78,-937
3313,3319,-282,-85,2102,87,-86,-902
3314,3320,-279,-127,2087,95,-81,-856
3315,3321,-253,-141,2106,95,-73,-802
3316,3322,-236,-157,2098,95,-63,-740
3317,3323,-190,-161,2101,99,-60,-685
3318,3324,-142,-163,2092,99,-56,-640
3319,3325,-107,-177,2067,100,-50,-587
3320,3326,-81,-179,2052,102,-43,-523
3321,3327,-82,-167,2039,100,-35,-466
3322,3328,-72,-171,2037,104,-32,-411
3323,3329,-52,-167,2038,105,-29,-352
3324,3330,-45,-166,2021,105,-33,-287
3325,3331,-21,-165,2015,102,-35,-223
3326,3332,17,-160,2017,106,-33,-155
3327,3333,27,-145,2012,106,-36,-85
3328,3334,40,-125,2003,106,-37,-17
3329,3335,38,-129,2016,119,-31,54
3330,3336,44,-149,2019,127,-26,131
3331,3337,33,-133,2006,131,-21,204
3332,3339,51,-137,1991,129,-18,276
3333,3340,66,-139,2010,127,-14,341
3334,3341,98,-132,2014,125,-8,409
3335,3342,130,-127,2016,119,-7,481
3336,3343,130,-134,2020,123,-2,552
3337,3344,123,-117,2016,133,6,621
3338,3345,104,-118,1995,139,15,682
3339,3346,76,-129,2021,145,22,737
3340,3347,80,-134,2015,149,33,795
3341,3348,84,-130,2015,156,43,865
3342,3349,104,-100,2018,157,49,937
3343,3350,123,-106,2019,162,62,1008
3344,3351,133,-115,2023,165,63,1075
3345,3352,128,-115,2014,164,61,1133
3346,3352,111,-93,2002,157,65,1202
3347,3353,93,-92,2013,151,70,1273
3348,3354,85,-86,2021,149,72,1346
3349,3355,81,-74,1997,148,71,1404
3350,3356,86,-65,2009,160,71,1450
3351,3357,94,-66,2007,166,78,1512
3352,3358,104,-68,2000,172,83,1582
3353,3359,108,-63,2011,173,87,1649
3354,3360,77,-58,2020,173,89,1715
3355,3361,97,-60,2036,173,91,1783
3356,3362,84,-53,2033,174,99,1850
3357,3363,77,-25,2035,175,100,1928
3358,3364,84,-5,2023,171,106,1999
3359,3365,91,-8,2021,169,119,2069
3360,3366,96,-28,2017,170,127,2139
3361,3367,102,-22,1995,173,131,2209
3362,3368,97,-29,2002,168,132,2275
3363,3369,96,-1,1995,167,139,2340
3364,3370,113,2,2001,163,142,2399
3365,3371,99,17,1990,167,144,2458
3366,3372,93,25,1974,172,148,2519
3367,3373,113,39,1978,174,158,2577
3368,3374,100,56,1988,169,170,2633
3369,3375,105,56,1996,166,177,2689
3370,3376,91,59,2003,174,179,2741
3371,3377,87,71,1996,174,185,2795
3372,3378,97,90,1996,170,191,2837
3373,3379,104,110,1979,160,198,2895
3374,3381,83,94,1982,158,203,2950
3375,3382,93,90,1986,156,199,2990
3376,3383,93,96,1991,154,198,3013
3377,3384,83,114,1999,151,200,3049
3378,3385,89,131,2017,148,205,3105
3379,3386,84,142,2007,147,206,3136
3380,3387,69,127,2035,146,209,3167
3381,3388,73,138,2030,147,207,3193
3382,3389,66,146,2029,141,214,3218
3383,3390,66,157,2033,138,221,3245
3384,3391,62,154,2024,137,222,3265
3385,3392,53,160,2053,133,218,3286
3386,3393,35,169,2068,128,220,3295
3387,3394,41,180,2063,126,220,3303
3388,3394,41,198,2057,125,223,3306
3389,3395,26,183,2049,126,222,3305
3390,3396,6,183,2081,126,223,3301
3391,3397,-2,182,2070,124,214,3291
3392,3398,7,198,2074,121,209,3284
3393,3399,13,206,2081,119,208,3274
3394,3400,16,209,2074,116,205,3261
3395,3401,1,209,2087,111,209,3251
3396,3402,7,196,2072,103,214,3227
3397,3403,20,183,2064,101,212,3200
3398,3404,11,170,2065,102,206,3180
3399,3405,9,174,2057,98,207,3156
3400,3406,9,190,2034,93,206,3137
3401,3407,4,177,2036,91,195,3093
3402,3408,-36,142,2046,93,190,3066
3403,3409,-29,113,2053,88,185,3025
3404,3410,-29,129,2062,82,182,2971
3405,3411,-23,118,2077,84,172,2924
3406,3412,-35,126,2084,81,163,2888
3407,3413,-43,122,2063,75,153,2868
3408,3414,-37,107,2064,76,147,2836
3409,3415,-45,92,2049,77,142,2774
3410,3416,-57,92,2056,73,140,2724
3411,3417,-43,91,2076,75,138,2682
3412,3418,-39,74,2077,74,139,2642
3413,3419,-22,66,2084,73,138,2598
3414,3420,-6,42,2085,68,137,2550
3415,3421,0,28,2083,71,135,2502
3416,3423,5,45,2092,71,128,2457
3417,3424,17,45,2086,72,123,2412
3418,3425,11,34,2071,70,116,2373
3419,3426,15,38,2060,68,113,2332
3420,3427,11,23,2080,70,105,2285
3421,3428,14,24,2078,73,102,2239
3422,3429,16,18,2073,76,94,2190
3423,3430,32,10,2082,74,90,2146
3424,3431,41,10,2083,71,91,2111
3425,3432,35,-5,2074,72,86,2080
3426,3433,36,-8,2092,70,76,2040
3427,3434,11,-18,2087,66,75,1997
3428,3435,0,-35,2083,66,72,1957
3429,3436,2,-36,2081,70,67,1923
3430,3436,25,-37,2070,70,68,1893
3431,3437,21,-61,2075,74,61,1866
3432,3438,-49,-113,2050,69,61,1834
3433,3439,-20,-72,2055,57,56,1793
3434,3440,-36,-54,2078,70,62,1759
3435,3441,-13,-118,2063,82,59,1730
3436,3442,-10,-130,2061,78,44,1706
3437,3443,-27,-120,2060,74,30,1680
3438,3444,-56,-136,2066,77,33,1648
3439,3445,-24,-121,2050,80,34,1619
3440,3446,-36,-83,2047,76,23,1592
3441,3447,-49,-100,2050,76,13,1572
3442,3448,-52,-110,2065,81,12,1550
3443,3449,-37,-92,2055,83,19,1527
3444,3450,-32,-91,2055,80,22,1507
3445,3451,-37,-96,2060,81,19,1484
3446,3452,-60,-91,2052,85,9,1465
3447,3453,-66,-94,2039,85,6,1454
3448,3454,-53,-82,2062,88,2,1446
3449,3455,-33,-73,2070,95,-5,1432
3450,3456,-64,-60,2052,92,-7,1420
3451,3457,-71,-40,2054,86,-7,1417
3452,3458,-79,-4,2058,79,-7,1418
3453,3459,-80,-4,2025,86,6,1416
3454,3460,-94,-80,2029,82,7,1429
3455,3461,-94,6,2014,63,-12,1433
3456,3462,-99,111,2069,76,-17,1439
3457,3463,-78,-16,2082,108,-9,1445
3458,3465,-108,-153,2057,112,-14,1444
3459,3466,-118,-147,2043,102,-33,1447
3460,3467,-189,-76,2034,90,-35,1452
3461,3468,-158,61,2030,78,-25,1467
3462,3469,-134,183,2026,71,-27,1480
3463,3470,-141,159,2043,64,-39,1481
3464,3471,-122,94,2055,71,-45,1471
3465,3472,-141,-11,2079,83,-44,1467
3466,3473,-128,-45,2065,83,-41,1466
3467,3474,-137,11,2069,78,-41,1471
3468,3475,-153,80,2055,76,-46,1482
3469,3476,-141,131,2058,78,-46,1486
3470,3477,-122,143,2047,78,-52,1479
3471,3478,-101,120,2068,76,-62,1464
3472,3478,-89,79,2066,75,-66,1463
3473,3479,-117,95,2081,68,-62,1472
3474,3480,-111,117,2077,64,-54,1486
3475,3481,-116,132,2061,68,-56,1492
3476,3482,-115,173,2051,66,-58,1489
3477,3483,-106,187,2068,62,-59,1485
3478,3484,-83,156,2095,59,-60,1488
3479,3485,-33,123,2115,62,-57,1501
3480,3486,-19,72,2120,61,-62,1518
3481,3487,-19,88,2112,59,-69,1527
3482,3488,-23,114,2085,58,-71,1530
3483,3489,-27,134,2083,54,-74,1526
3484,3490,-39,120,2087,53,-79,1523
3485,3491,-56,105,2091,53,-79,1526
3486,3492,-41,82,2097,50,-70,1535
3487,3493,-17,93,2109,47,-70,1534
3488,3494,-4,103,2071,48,-74,1514
3489,3495,-7,100,2054,47,-73,1504
3490,3496,2,90,2076,38,-79,1496
3491,3497,0,55,2071,33,-81,1480
3492,3498,-12,33,2058,35,-81,1474
3493,3499,21,32,2096,40,-86,1475
3494,3500,33,38,2070,37,-90,1463
3495,3501,23,65,2032,37,-91,1439
3496,3502,36,104,2022,36,-67,1445
3497,3503,74,210,2034,27,-88,1438
3498,3504,-36,78,2015,47,-94,1419
3499,3505,-55,-97,2029,48,-101,1424
3500,3507,-66,-30,2039,38,-123,1421
3501,3508,-142,-4,2027,26,-129,1423
3502,3509,-123,78,2041,24,-138,1420
3503,3510,-131,82,2052,33,-152,1403
3504,3511,-153,-18,2035,30,-151,1394
3505,3512,-89,-76,2058,30,-143,1385
3506,3513,-72,-81,2056,31,-140,1377
3507,3514,-60,-75,2056,29,-137,1374
3508,3515,-40,-66,2063,31,-135,1370
3509,3516,-47,-45,2057,36,-124,1362
3510,3517,-19,-34,2075,40,-113,1353
3511,3518,20,-36,2059,38,-108,1345
3512,3519,50,-29,2064,40,-108,1350
3513,3520,89,-55,2072,42,-107,1364
3514,3520,144,-50,2047,39,-111,1368
3515,3521,166,-64,2048,37,-113,1366
3516,3522,164,-54,2054,35,-117,1361
3517,3523,162,-50,2049,34,-123,1360
3518,3524,178,-35,2063,36,-126,1369
3519,3525,170,-48,2067,35,-129,1383
3520,3526,173,-52,2058,35,-127,1395
3521,3527,187,-61,2051,33,-121,1400
3522,3528,185,-67,2042,36,-110,1403
3523,3529,189,-71,2047,38,-105,1402
3524,3530,189,-58,2054,38,-108,1413
3525,3531,185,-63,2043,40,-105,1424
3526,3532,177,-76,2041,40,-94,1442
3527,3533,187,-72,2036,41,-95,1461
3528,3534,191,-65,2036,39,-96,1473
3529,3535,191,-70,2041,39,-100,1482
3530,3536,191,-53,2009,38,-101,1483
3531,3537,184,-59,2024,40,-101,1485
3532,3538,196,-46,2035,39,-95,1492
3533,3539,198,-56,2037,44,-97,1495
3534,3540,190,-54,2017,49,-97,1495
3535,3541,182,-45,2015,46,-93,1495
3536,3542,196,-25,2029,43,-90,1492
3537,3543,203,-23,2042,50,-87,1490
3538,3544,210,-29,2039,51,-78,1491
3539,3545,195,-44,2036,55,-79,1495
3540,3546,191,-22,2049,54,-79,1496
3541,3547,185,-13,2054,52,-77,1493
3542,3549,186,15,2070,54,-78,1484
3543,3550,169,32,2061,58,-75,1467
3544,3551,164,39,2065,57,-67,1451
3545,3552,151,21,2063,52,-66,1429
3546,3553,143,26,2054,45,-67,1413
3547,3554,149,41,2067,39,-75,1395
3548,3555,139,41,2070,38,-73,1375
3549,3556,123,37,2063,42,-76,1349
3550,3557,127,32,2073,42,-81,1319
3551,3558,205,28,2064,36,-89,1277
3552,3559,346,23,2055,28,-105,1229
3553,3560,263,21,2067,33,-96,1195
3554,3561,186,-39,2090,47,-69,1185
3555,3562,168,-50,2102,49,-59,1169
3556,3562,139,-28,2091,37,-71,1133
3557,3563,132,-34,2062,36,-79,1077
3558,3564,163,-15,2078,39,-76,1021
3559,3565,180,-18,2080,44,-69,990
3560,3566,160,-56,2080,43,-68,971
3561,3567,159,-48,2082,38,-78,949
3562,3568,147,-29,2086,35,-86,920
3563,3569,108,-24,2080,39,-83,874
3564,3570,113,-34,2086,42,-82,818
3565,3571,132,-20,2090,44,-85,774
3566,3572,109,-12,2082,44,-88,746
3567,3573,109,-16,2090,43,-86,722
3568,3574,126,-9,2090,45,-81,693
3569,3575,136,-5,2081,48,-83,656
3570,3576,125,5,2085,52,-87,611
3571,3577,113,21,2080,50,-88,575
3572,3578,110,37,2069,48,-89,551
3573,3579,109,35,2069,46,-85,535
3574,3580,126,10,2065,40,-90,504
3575,3581,142,6,2060,43,-91,474
3576,3582,145,4,2063,45,-93,445
3577,3583,140,22,2074,43,-98,423
3578,3584,126,4,2065,41,-102,407
3579,3585,127,-25,2058,44,-99,385
3580,3586,112,-67,2048,43,-87,363
3581,3587,167,-25,2059,33,-84,345
3582,3588,152,22,2068,22,-94,332
3583,3589,162,65,2056,25,-90,318
3584,3591,162,-1,2084,36,-89,307
3585,3592,167,-35,2066,40,-88,301
3586,3593,153,-49,2089,41,-83,292
3587,3594,169,-43,2062,44,-81,279
3588,3595,183,-13,2056,49,-78,270
3589,3596,177,29,2077,46,-79,270
3590,3597,182,36,2086,38,-81,271
3591,3598,183,72,2067,30,-85,266
3592,3599,171,38,2081,33,-91,254
3593,3600,170,-55,2098,44,-85,241
3594,3601,170,-89,2084,44,-72,235
3595,3602,180,-56,2077,37,-63,236
3596,3603,180,27,2089,37,-67,241
3597,3604,201,51,2082,36,-70,239
3598,3604,193,-13,2081,38,-68,237
3599,3605,198,-92,2056,41,-67,232
3600,3606,193,-92,2036,42,-65,229
3601,3607,212,-30,2038,45,-64,232
3602,3608,208,14,2040,45,-65,245
3603,3609,209,0,2053,42,-57,254
3604,3610,194,-33,2028,41,-51,255
3605,3611,202,-38,2038,36,-54,251
3606,3612,205,-8,2051,39,-55,254
3607,3613,202,-4,2039,47,-52,259
3608,3614,187,-44,2036,51,-49,267
3609,3615,194,-76,2049,44,-46,273
3610,3616,193,-45,2046,36,-42,279
3611,3617,195,4,2039,35,-42,282
3612,3618,186,22,2040,38,-43,289
3613,3619,188,16,2056,43,-42,299
3614,3620,176,-49,2046,50,-35,303
3615,3621,173,-87,2033,44,-32,315
3616,3622,170,-40,2049,41,-30,329
3617,3623,167,0,2053,45,-30,349
3618,3624,176,25,2060,43,-31,362
3619,3625,162,8,2080,41,-30,370
3620,3626,167,-52,2077,48,-32,377
3621,3627,162,-83,2054,52,-25,392
3622,3628,165,-67,2044,50,-21,410
3623,3629,145,-21,2058,49,-14,431
3624,3630,149,-8,2066,45,-19,459
3625,3631,145,-3,2050,53,-22,470
3626,3633,134,-97,2055,55,-17,487
3627,3634,140,-103,2041,52,-12,511
3628,3635,131,-78,2063,53,-9,543
3629,3636,139,-24,2056,55,-9,571
3630,3637,125,-55,2033,58,-4,593
3631,3638,131,-100,2049,56,-6,622
3632,3639,131,-99,2042,56,-5,641
3633,3640,134,-74,2032,55,-1,667
3634,3641,147,-21,2040,57,2,690
3635,3642,138,-41,2042,65,4,724
3636,3643,135,-57,2041,65,1,759
3637,3644,135,-77,2041,59,0,784
3638,3645,142,-52,2037,57,2,805
3639,3646,128,-47,2049,60,4,828
3640,3646,122,-38,2044,63,10,864
3641,3647,128,-46,2039,67,10,893
3642,3648,122,-53,2039,64,11,921
3643,3649,115,-21,2069,60,8,939
3644,3650,100,-18,2068,65,10,952
3645,3651,104,-37,2068,71,12,971
3646,3652,108,-31,2070,73,11,983
3647,3653,75,-28,2067,71,14,999
3648,3654,97,-26,2072,72,15,1010
3649,3655,82,-25,2060,74,19,1013
3650,3656,63,-16,2048,76,27,1010
3651,3657,47,-24,2053,84,26,1003
3652,3658,62,-40,2046,88,23,997
3653,3659,84,-26,2057,90,19,990
3654,3660,96,-15,2058,90,17,987
3655,3661,115,0,2070,92,16,979
3656,3662,103,-27,2053,87,11,966
3657,3663,104,-41,2043,84,14,946
3658,3664,82,-33,2055,83,16,921
3659,3665,72,-4,2060,84,21,897
3660,3666,84,-11,2067,85,16,876
3661,3667,88,-13,2075,84,20,843
3662,3668,90,-37,2073,78,21,804
3663,3669,90,-45,2050,77,21,757
3664,3670,104,-78,2059,80,29,708
3665,3671,111,-87,2071,86,25,651
3666,3672,115,-145,2078,87,18,582
3667,3673,126,-109,2064,85,21,523
3668,3675,154,-85,2074,83,25,461
3669,3676,148,-80,2072,85,27,404
3670,3677,167,-68,2082,80,17,340
3671,3678,146,-83,2074,77,11,274
3672,3679,132,-96,2069,71,0,217
3673,3680,112,-60,2069,72,-10,166
3674,3681,84,-28,2081,70,-13,113
3675,3682,82,-7,2082,66,-14,66
3676,3683,101,32,2084,66,-22,26
3677,3684,91,11,2064,70,-26,-13
3678,3685,84,-24,2064,71,-22,-43
3679,3686,83,-11,2074,74,-13,-68
3680,3687,95,7,2077,76,-4,-84
3681,3688,113,23,2066,82,-4,-90
3682,3688,97,7,2062,83,-10,-101
3683,3689,76,5,2045,82,-15,-116
3684,3690,63,0,2063,82,-16,-124
3685,3691,75,37,2053,82,-19,-125
3686,3692,76,38,2052,84,-21,-123
3687,3693,62,28,2036,82,-32,-123
3688,3694,44,51,2034,78,-36,-123
3689,3695,45,60,2027,84,-34,-126
3690,3696,33,38,2032,82,-38,-128
3691,3697,28,60,2029,77,-42,-131
3692,3698,2,92,2058,73,-46,-127
3693,3699,-9,78,2059,77,-47,-122
3694,3700,-12,70,2035,80,-41,-120
3695,3701,-12,64,2042,77,-43,-118
3696,3702,-12,63,2051,76,-45,-107
3697,3703,-31,82,2058,74,-41,-95
3698,3704,-38,88,2042,73,-43,-84
3699,3705,-43,82,2060,67,-47,-76
3700,3706,-45,81,2065,62,-54,-70
3701,3707,-45,78,2063,61,-50,-58
3702,3708,-50,79,2060,60,-45,-41
3703,3709,-51,95,2081,62,-41,-29
3704,3710,-31,93,2071,63,-42,-11
3705,3711,-34,100,2062,58,-44,9
3706,3712,-33,108,2057,52,-41,26
3707,3713,-32,83,2063,56,-34,42
3708,3714,-29,90,2037,55,-30,64
3709,3715,-11,119,2048,53,-28,85
3710,3717,-3,120,2067,55,-20,111
3711,3718,-2,94,2058,55,-20,137
3712,3719,4,89,2062,47,-21,160
3713,3720,30,82,2053,48,-19,185
3714,3721,36,74,2042,47,-17,210
3715,3722,59,80,2040,42,-17,235
3716,3723,72,97,2039,39,-17,258
3717,3724,67,65,2050,42,-12,285
3718,3725,69,64,2049,47,-8,310
3719,3726,86,82,2057,42,-11,331
3720,3727,109,69,2048,38,-10,351
3721,3728,132,73,2045,39,-8,376
3722,3729,153,69,2035,42,-8,400
3723,3730,153,38,2044,42,-1,411
3724,3730,157,0,2055,44,10,430
3725,3731,171,-21,2042,36,21,449
3726,3732,231,43,2040,31,13,470
3727,3733,203,52,2045,31,6,491
3728,3734,214,9,2042,34,13,511
3729,3735,219,-30,2029,38,21,534
3730,3736,218,-49,2040,32,24,554
3731,3737,231,-20,2037,28,25,579
3732,3738,239,23,2052,32,23,603
3733,3739,234,-15,2055,34,27,631
3734,3740,255,-44,2043,35,34,660
3735,3741,252,-54,2047,37,41,687
3736,3742,252,-57,2047,38,48,714
3737,3743,249,-54,2055,33,47,741
3738,3744,235,-48,2041,34,48,764
3739,3745,237,-53,2039,41,51,787
3740,3746,235,-64,2029,41,51,806
3741,3747,215,-76,2046,36,51,821
3742,3748,224,-58,2035,44,56,835
3743,3749,215,-70,2037,47,63,854
3744,3750,220,-75,2036,48,63,874
