sample,timestamp_ms,ax,ay,az,gx,gy,gz
0,9,54,39,2076,8,17,-5
1,10,49,39,2083,7,16,-1
2,11,35,44,2060,8,12,-1
3,12,40,32,2083,9,11,-4
4,13,53,34,2072,5,16,-4
5,14,50,34,2049,6,13,-5
6,15,37,26,2050,5,12,-4
7,16,38,35,2049,5,17,2
8,17,36,32,2066,5,21,0
9,18,36,34,2069,4,18,-4
10,19,52,39,2043,8,15,-5
11,20,46,30,2071,7,12,-4
12,21,44,35,2058,4,13,-1
13,22,47,32,2047,2,12,-4
14,22,37,36,2048,9,17,-4
15,23,41,40,2042,10,16,2
16,24,41,32,2050,6,16,-1
17,25,45,33,2067,3,14,-3
18,26,46,32,2074,6,12,-3
19,27,46,29,2053,6,10,-3
20,28,37,30,2050,4,15,-7
21,29,48,30,2057,5,11,-6
22,30,46,30,2047,4,11,-5
23,31,36,39,2057,5,11,-6
24,32,43,34,2042,7,13,-1
25,33,39,37,2050,10,16,-2
26,34,41,34,2055,6,22,-5
27,35,42,41,2067,7,18,-7
28,36,46,29,2050,4,13,-9
29,37,42,35,2076,2,13,-6
30,38,53,41,2059,4,13,-3
31,39,52,38,2071,3,8,-4
32,40,49,35,2070,6,6,-7
33,41,45,37,2058,7,8,-7
34,42,36,31,2051,7,14,-7
35,43,31,37,2061,7,11,-4
36,44,28,38,2051,8,8,-2
37,45,40,41,2050,3,13,-5
38,46,43,30,2053,5,16,-7
39,47,36,22,2060,10,17,-5
40,48,37,23,2067,8,14,-3
41,49,37,28,2060,2,11,-3
42,51,33,37,2059,3,8,-1
43,52,40,17,2061,4,9,-7
44,53,32,29,2054,0,11,-9
45,54,37,30,2059,0,12,-3
46,55,35,24,2063,5,8,0
47,56,34,21,2059,7,6,-4
48,57,26,21,2067,7,8,-8
49,58,27,34,2060,2,17,-6
50,59,32,28,2090,2,19,-6
51,60,20,39,2062,8,15,-5
52,61,12,39,2055,13,9,-6
53,62,31,22,2052,11,3,-3
54,63,33,30,2052,9,6,-3
55,64,30,38,2057,9,12,-4
56,64,35,28,2059,7,11,-6
57,65,43,34,2059,8,8,-5
58,66,26,30,2065,4,10,-4
59,67,27,30,2065,1,13,-5
60,68,23,36,2047,4,11,-3
61,69,25,20,2049,7,11,-1
62,70,29,18,2060,7,2,-2
63,71,35,33,2050,11,5,-2
64,72,24,42,2054,12,9,-2
65,73,25,39,2082,7,11,-5
66,74,27,38,2070,6,11,-6
67,75,28,25,2055,6,11,-2
68,76,22,18,2055,10,9,-2
69,77,36,29,2056,11,6,-3
70,78,35,32,2050,9,8,-3
71,79,32,30,2039,9,9,-3
72,80,28,28,2051,8,7,-2
73,81,39,33,2056,7,3,-2
74,82,36,40,2037,4,2,-5
75,83,31,45,2055,8,6,-4
76,84,20,44,2057,7,11,-2
77,85,32,51,2058,7,9,-2
78,86,31,36,2041,4,2,0
79,87,36,35,2057,7,0,-2
80,88,34,45,2052,8,-2,1
81,89,26,38,2048,6,1,3
82,90,32,35,2067,10,2,4
83,91,23,37,2058,11,-1,2
84,93,34,41,2063,11,2,-2
85,94,36,40,2060,10,6,0
86,95,36,26,2054,9,2,4
87,96,37,39,2049,9,-2,6
88,97,31,43,2036,6,-3,2
89,98,34,32,2044,5,1,-2
90,99,36,43,2070,5,5,-1
91,100,41,37,2076,7,6,-2
92,101,47,41,2078,6,4,-4
93,102,48,42,2062,6,2,-5
94,103,41,43,2079,5,0,-2
95,104,31,49,2066,4,-5,-1
96,105,35,45,2048,5,-6,-5
97,106,40,42,2048,3,-2,-4
98,106,40,43,2074,4,2,-2
99,107,47,35,2065,8,0,2
100,108,43,46,2047,4,-6,0
101,109,41,55,2062,2,-7,-2
102,110,39,45,2087,4,-3,-6
103,111,32,45,2071,3,2,-3
104,112,39,40,2062,3,2,2
105,113,39,46,2061,5,-1,2
106,114,41,35,2054,9,-2,-1
107,115,38,46,2070,11,-1,-3
108,116,33,44,2050,8,4,-3
109,117,39,45,2054,5,5,-3
110,118,47,47,2063,2,-4,-2
111,119,43,38,2076,5,-5,-1
112,120,29,28,2062,6,-5,0
113,121,46,44,2061,2,-2,-4
114,122,36,48,2067,0,1,-3
115,123,35,41,2068,3,5,1
116,124,33,38,2053,3,4,-2
117,125,35,34,2046,5,-1,-4
118,126,44,48,2046,6,-3,-3
119,127,31,46,2054,4,1,-4
120,128,25,47,2050,1,-2,-8
121,129,31,42,2064,-2,-4,-6
122,130,29,36,2065,2,-5,-6
123,131,35,49,2063,2,-2,-3
124,132,23,45,2076,-3,0,0
125,133,28,40,2085,-3,1,-3
126,135,33,53,2061,1,3,-2
127,136,40,44,2048,2,-1,-1
128,137,36,54,2051,3,-4,0
129,138,38,44,2061,4,-1,-1
130,139,38,44,2049,3,2,-2
131,140,46,34,2041,1,3,0
132,141,41,32,2052,0,-2,-2
133,142,40,46,2060,0,-9,-4
134,143,34,44,2035,-1,-9,-4
135,144,33,44,2043,0,-7,-3
136,145,36,38,2063,2,-2,-2
137,146,34,32,2054,2,1,-3
138,147,39,34,2064,0,1,-3
139,148,28,33,2047,2,2,-3
140,148,31,23,2051,3,0,-4
141,149,45,42,2055,1,-2,-4
142,150,35,35,2046,0,0,-4
143,151,30,36,2046,1,-3,-8
144,152,23,34,2041,0,-4,-4
145,153,24,37,2060,-1,1,-3
146,154,33,39,2067,-4,-3,-1
147,155,32,45,2058,-6,-7,-3
148,156,33,52,2069,-7,-9,-7
149,157,30,38,2076,0,-5,-3
150,158,28,27,2067,-2,-3,-2
151,159,36,39,2074,-1,-8,0
152,160,32,38,2059,0,-8,-1
153,161,26,34,2039,0,-4,-5
154,162,35,37,2040,0,-8,-3
155,163,27,29,2058,-3,-7,1
156,164,18,29,2054,-4,-7,2
157,165,26,30,2053,-3,-7,-1
158,166,23,42,2049,1,-3,1
159,167,25,41,2069,6,-4,1
160,168,26,33,2074,4,-8,-2
161,169,38,35,2054,0,-7,-2
162,170,40,35,2040,-1,-10,0
163,171,27,42,2049,3,-14,0
164,172,30,32,2047,1,-14,0
165,173,31,26,2048,-6,-9,2
166,174,35,46,2049,-8,-4,2
167,175,28,45,2060,-1,-5,5
168,177,19,43,2052,5,-11,0
169,178,28,39,2046,2,-14,1
170,179,26,37,2063,1,-13,3
171,180,36,39,2062,1,-10,2
172,181,42,41,2060,4,-13,0
173,182,34,38,2058,-1,-12,0
174,183,27,35,2073,-6,-14,-1
175,184,33,44,2066,-5,-12,1
176,185,36,44,2058,-3,-14,2
177,186,31,38,2065,-1,-16,0
178,187,42,40,2054,0,-15,-1
179,188,40,42,2056,4,-14,2
180,189,36,45,2081,0,-14,9
181,190,40,52,2061,-4,-9,5
182,190,29,51,2061,-3,-11,-1
183,191,33,38,2056,-3,-14,0
184,192,45,26,2052,-4,-16,2
185,193,40,29,2051,-3,-16,-2
186,194,38,18,2046,-2,-14,1
187,195,46,28,2050,-3,-15,2
188,196,43,37,2057,-3,-17,0
189,197,37,53,2078,0,-16,-1
190,198,43,42,2076,-1,-14,1
191,199,40,46,2064,1,-12,6
192,200,36,49,2069,0,-13,3
193,201,38,35,2085,-1,-15,2
194,202,48,37,2068,-1,-15,7
195,203,40,42,2055,-3,-15,3
196,204,41,36,2055,-2,-16,3
197,205,43,30,2061,-2,-17,0
198,206,51,43,2047,-6,-16,-2
199,207,50,55,2052,-7,-16,-1
200,208,44,48,2062,-9,-17,4
201,209,36,45,2078,-6,-19,10
202,210,44,41,2065,-6,-13,10
203,211,45,41,2049,-3,-12,4
204,212,54,50,2031,-2,-11,1
205,213,49,42,2065,-6,-13,2
206,214,46,49,2071,-9,-11,0
207,215,54,39,2057,-6,-11,-1
208,216,45,37,2066,-7,-15,0
209,217,54,47,2067,-3,-14,3
210,218,49,41,2050,1,-13,2
211,219,41,41,2053,-1,-14,-1
212,220,45,42,2060,-6,-17,-4
213,221,39,42,2056,-8,-11,-3
214,222,40,42,2050,-7,-9,-5
215,223,46,38,2063,-4,-12,-4
216,224,44,41,2046,-5,-10,2
217,225,53,34,2047,-8,-10,4
218,226,43,52,2053,-8,-12,5
219,227,49,41,2039,-3,-18,1
220,228,47,38,2059,-3,-18,0
221,229,47,34,2079,-4,-13,-2
222,230,52,38,2071,-7,-11,-4
223,231,52,36,2051,-9,-6,1
224,232,52,44,2064,-8,-8,5
225,233,53,44,2061,-7,-11,3
226,234,50,46,2065,-9,-13,-1
227,235,54,31,2063,-11,-16,3
228,236,56,28,2067,-9,-17,3
229,237,53,28,2064,-8,-8,-1
230,238,44,33,2076,-7,-9,0
231,239,46,31,2074,-6,-14,2
232,240,38,28,2072,-5,-17,5
233,241,32,36,2074,-8,-18,4
234,242,47,31,2065,-9,-16,-1
235,243,53,27,2043,-3,-17,-2
236,244,38,38,2064,-2,-14,-2
237,245,40,43,2070,-7,-12,-1
238,246,51,32,2067,-9,-10,0
239,247,46,33,2056,-7,-13,3
240,248,57,38,2045,-5,-15,1
241,249,47,23,2069,-8,-12,1
242,250,46,34,2068,-8,-11,2
243,251,48,34,2054,-3,-10,-1
244,252,41,27,2054,-5,-11,-2
245,253,45,33,2031,-7,-14,-1
246,254,36,31,2055,-6,-14,0
247,255,44,35,2057,-6,-12,-4
248,256,46,29,2066,-4,-13,-2
249,257,34,22,2073,-7,-16,5
250,258,46,26,2072,-11,-22,2
251,259,56,28,2062,-9,-21,2
252,260,39,29,2076,-9,-15,1
253,261,40,32,2075,-7,-16,0
254,262,43,35,2077,-7,-17,2
255,263,45,45,2077,-7,-16,-2
256,264,46,43,2058,-9,-12,-4
257,265,45,36,2064,-4,-13,0
258,266,42,24,2068,-2,-13,3
259,267,50,34,2047,-4,-15,1
260,268,49,40,2045,-4,-15,4
261,269,47,27,2070,-5,-15,6
262,270,50,29,2071,-4,-16,5
263,271,42,39,2064,-4,-14,2
264,272,45,28,2066,-2,-14,2
265,273,47,37,2050,-3,-21,0
266,274,41,33,2063,-8,-20,-3
267,275,47,43,2069,-9,-14,-4
268,276,59,35,2058,-6,-8,3
269,277,52,25,2061,-2,-10,6
270,278,37,35,2055,-5,-10,3
271,279,42,20,2058,-4,-11,2
272,280,47,32,2057,0,-14,1
273,281,55,25,2067,-4,-19,2
274,282,52,26,2062,-6,-20,6
275,283,54,35,2057,-6,-16,5
276,284,50,21,2053,-5,-15,5
277,285,54,31,2042,-4,-16,1
278,286,62,33,2059,-3,-11,3
279,287,61,36,2054,-6,-11,3
280,288,61,44,2064,-4,-15,0
281,289,57,31,2076,-7,-15,3
282,290,49,35,2055,-12,-17,5
283,291,55,35,2051,-10,-17,8
284,292,71,37,2062,-4,-16,11
285,293,60,31,2059,-2,-16,5
286,294,46,22,2048,-4,-12,1
287,295,54,35,2044,-1,-10,3
288,296,61,34,2054,-2,-10,4
289,297,63,34,2049,-6,-9,2
290,298,52,32,2072,-8,-11,6
291,299,55,21,2062,-7,-16,8
292,300,53,39,2057,-5,-14,7
293,301,59,41,2074,-3,-10,9
294,303,70,35,2072,-7,-10,5
295,304,61,39,2061,-8,-12,0
296,305,59,49,2047,-5,-15,3
297,306,64,40,2052,-1,-11,7
298,307,61,22,2065,-2,-6,4
299,308,49,33,2052,-6,-3,1
300,309,54,48,2048,-6,-8,2
301,310,54,41,2058,-2,-11,2
302,311,59,43,2056,0,-16,7
303,312,71,24,2059,-3,-14,5
304,313,65,22,2055,-7,-10,2
305,314,69,30,2064,-6,-10,1
306,315,67,40,2069,-6,-9,3
307,316,66,42,2052,-6,-11,6
308,316,54,31,2067,-7,-12,2
309,317,61,25,2053,-4,-7,1
310,318,68,28,2061,-3,-3,-1
311,319,61,32,2075,-7,-5,1
312,320,61,37,2058,-8,-7,1
313,321,62,43,2055,-9,-6,-2
314,322,56,37,2059,-9,-4,-1
315,323,59,29,2061,-9,-7,1
316,324,58,28,2054,-7,-7,4
317,325,58,27,2070,-5,-6,3
318,326,68,41,2058,-5,-3,3
319,327,64,30,2062,-3,-3,1
320,328,61,32,2067,0,-5,-1
321,329,65,35,2062,-5,-5,-1
322,330,71,24,2066,-7,-5,0
323,331,72,21,2061,-6,0,-2
324,332,65,28,2062,-6,-2,-1
325,333,64,29,2065,-4,-5,3
326,334,57,26,2049,-2,-8,0
327,335,59,34,2043,0,-6,0
328,336,68,32,2049,0,-3,4
329,337,67,37,2059,-5,-7,2
330,338,65,28,2070,-7,-5,2
331,339,61,26,2051,-7,-3,0
332,340,62,33,2055,-1,-3,0
333,341,63,39,2066,1,-3,3
334,342,68,37,2072,-6,-5,3
335,343,59,37,2040,-7,-1,1
336,345,69,34,2065,-11,2,-1
337,346,57,32,2067,-5,3,-1
338,347,62,11,2076,-2,-1,-3
339,348,63,19,2059,-3,-3,-1
340,349,61,30,2046,-5,1,-1
341,350,60,26,2048,-8,1,1
342,351,54,28,2060,-8,0,1
343,352,61,23,2061,-8,-2,-1
344,353,60,25,2048,-3,-7,0
345,354,57,40,2042,-2,-7,1
346,355,56,25,2032,-1,-3,4
347,356,61,31,2051,-2,-1,4
348,357,57,24,2060,-3,-2,2
349,358,57,30,2067,-2,-5,-1
350,358,56,22,2073,-5,3,3
351,359,55,20,2073,-5,3,0
352,360,60,38,2055,-1,0,0
353,361,65,21,2056,-1,2,3
354,362,54,26,2056,-2,1,4
355,363,50,22,2052,-3,0,-1
356,364,45,17,2048,-3,-5,-2
357,365,53,14,2055,-8,-4,-4
358,366,65,11,2039,-4,-1,-2
359,367,60,26,2047,-3,2,1
360,368,58,25,2052,-3,3,2
361,369,56,20,2057,-5,1,-3
362,370,55,31,2069,-5,-1,-2
363,371,56,24,2056,-5,-3,-1
364,372,49,20,2056,-3,-1,0
365,373,53,29,2056,2,2,-4
366,374,62,22,2072,6,3,-2
367,375,58,29,2068,2,6,-2
368,376,60,31,2068,0,4,-3
369,377,61,36,2044,-1,0,0
370,378,52,27,2049,-3,-2,-1
371,379,57,15,2059,-1,1,0
372,380,63,25,2063,-2,2,0
373,381,61,19,2075,5,1,2
374,382,42,20,2071,2,7,2
375,383,58,29,2054,-1,9,3
376,384,76,32,2062,1,3,0
377,385,61,31,2056,0,4,1
378,387,59,20,2041,-1,12,4
379,388,60,16,2042,-4,7,6
380,389,62,18,2055,-4,3,5
381,390,65,26,2056,-1,4,4
382,391,66,22,2057,-4,7,5
383,392,60,22,2069,0,5,5
384,393,60,27,2080,2,3,6
385,394,53,17,2077,3,2,2
386,395,55,32,2059,3,4,-3
387,396,47,34,2081,2,12,-2
388,397,50,30,2072,-5,11,3
389,398,64,23,2067,-1,11,3
390,399,70,33,2054,1,7,5
391,400,63,25,2053,2,9,4
392,400,71,22,2053,0,5,-1
393,401,80,23,2059,1,6,-1
394,402,65,25,2050,0,11,3
395,403,49,26,2044,3,14,6
396,404,57,29,2042,3,6,4
397,405,66,21,2061,0,5,2
398,406,57,29,2060,1,9,2
399,407,50,41,2054,1,15,5
400,408,58,30,2049,2,15,3
401,409,68,32,2084,7,12,-1
402,410,54,38,2073,8,11,-1
403,411,61,45,2072,3,8,0
404,412,62,31,2047,0,8,-2
405,413,69,24,2054,-1,6,0
406,414,60,31,2065,2,7,0
407,415,56,32,2056,-1,7,0
408,416,56,36,2054,1,9,0
409,417,62,29,2049,1,14,1
410,418,67,21,2054,2,14,1
411,419,62,36,2041,5,9,3
412,420,60,29,2044,2,7,4
413,421,59,37,2056,-2,9,4
414,422,59,48,2058,-1,10,2
415,423,69,39,2043,2,10,-2
416,424,67,40,2065,4,13,1
417,425,61,25,2053,2,15,4
418,426,53,12,2057,2,16,2
419,427,64,27,2048,-1,15,0
420,428,73,29,2052,-2,10,-4
421,429,69,35,2059,0,11,-1
422,430,70,38,2067,2,10,0
423,431,66,32,2074,4,15,0
424,432,64,31,2063,4,19,5
425,433,57,26,2043,2,13,4
426,434,58,24,2051,-1,12,0
427,435,54,38,2053,-3,15,0
428,436,64,30,2061,0,16,2
429,437,61,23,2082,0,13,3
430,438,45,21,2074,2,14,2
431,439,39,24,2066,1,18,3
432,440,46,33,2074,4,21,0
433,441,57,30,2055,6,20,-5
434,442,56,27,2046,6,15,-4
435,443,53,20,2067,3,16,-1
436,444,53,30,2053,4,16,5
437,445,61,27,2052,7,15,3
438,446,51,22,2057,6,14,1
439,447,55,12,2059,6,14,4
440,448,50,9,2063,2,14,2
441,449,52,21,2065,1,11,-4
442,450,54,17,2068,3,9,-1
443,451,38,29,2055,2,11,4
444,452,42,30,2048,1,14,2
445,453,41,28,2052,3,17,0
446,454,35,31,2062,4,12,3
447,455,52,24,2056,4,16,1
448,456,45,33,2070,5,18,-1
449,457,37,39,2063,5,18,0
450,458,43,30,2052,2,19,1
451,459,51,40,2051,2,19,2
452,460,41,32,2056,6,16,2
453,461,48,35,2062,6,16,2
454,462,43,41,2056,6,16,-1
455,463,45,27,2061,2,14,-3
456,464,53,22,2055,1,12,0
457,465,54,18,2054,5,13,3
458,466,40,26,2061,6,17,3
459,467,40,29,2062,5,19,-1
460,468,35,31,2060,3,16,-1
461,469,33,30,2059,5,14,2
462,470,44,28,2080,3,15,-1
463,471,43,34,2059,2,14,0
464,472,40,34,2062,3,15,2
465,473,49,28,2047,8,17,0
466,474,49,34,2061,10,20,-3
467,475,37,25,2065,6,22,-5
468,476,37,29,2057,4,17,-2
469,477,39,22,2066,3,14,-3
470,478,40,31,2052,0,14,-2
471,479,38,38,2043,2,19,-2
472,480,38,35,2054,9,18,1
473,481,46,30,2055,11,14,0
474,482,36,23,2058,6,19,0
475,483,42,32,2066,-1,18,-2
476,484,43,43,2072,0,14,-3
477,485,40,29,2075,2,18,4
478,486,45,29,2062,5,22,3
479,487,50,42,2071,7,18,3
480,488,49,42,2061,10,15,2
481,489,44,42,2053,10,16,2
482,490,46,31,2073,7,14,5
483,491,32,28,2072,5,9,6
484,492,45,42,2064,2,11,2
485,493,52,35,2065,6,18,2
486,494,38,42,2051,7,15,0
487,495,43,23,2064,5,12,1
488,496,41,27,2049,3,10,0
489,497,44,36,2056,4,9,2
490,498,50,35,2060,9,18,1
491,499,56,36,2072,13,24,2
492,500,48,37,2060,6,22,1
493,501,45,38,2066,5,18,2
494,502,49,39,2066,6,12,0
495,503,44,43,2062,6,9,0
496,504,46,43,2053,8,9,0
497,505,47,34,2061,9,12,-4
498,506,52,35,2057,7,13,-3
499,507,38,38,2055,4,12,-3
500,508,44,31,2049,2,11,-3
501,509,54,32,2066,4,14,-7
502,510,47,30,2059,5,17,-5
503,511,42,41,2048,1,13,0
504,512,51,42,2057,-1,13,3
505,513,45,27,2066,0,17,4
506,514,39,39,2045,5,15,-1
507,515,55,39,2062,10,19,-2
508,516,62,35,2065,5,19,1
509,517,46,45,2047,2,17,2
510,518,41,40,2057,4,18,-4
511,519,46,36,2054,7,17,-4
512,520,37,29,2061,7,12,-1
513,521,49,38,2060,6,15,-3
514,522,52,39,2055,6,13,-4
515,523,44,32,2055,3,14,1
516,524,41,39,2049,2,12,0
517,525,45,39,2058,-2,12,0
518,526,38,48,2066,3,10,3
519,527,47,52,2061,6,16,3
520,528,50,28,2066,3,19,1
521,529,44,32,2063,1,14,-3
522,530,41,35,2075,0,10,-4
523,531,34,32,2062,2,10,-3
524,532,45,42,2073,4,12,-1
525,533,42,35,2062,7,16,0
526,534,39,38,2072,3,14,-1
527,535,35,41,2063,-2,10,-2
528,536,37,47,2052,4,14,-5
529,537,40,49,2056,9,14,-6
530,538,49,37,2069,7,13,-5
531,539,36,26,2080,3,15,-2
532,540,28,35,2069,2,12,-3
533,541,42,33,2065,5,11,-5
534,542,38,24,2057,4,13,-3
535,543,35,22,2060,3,14,-3
536,544,35,38,2061,3,12,-4
537,545,49,34,2064,4,12,-6
538,546,38,35,2039,4,13,-6
539,547,41,30,2043,4,15,-4
540,548,43,27,2044,3,14,-6
541,549,37,41,2063,2,16,-3
542,550,31,32,2058,2,15,-4
543,551,28,35,2072,1,10,-3
544,552,17,34,2063,-1,8,-4
545,553,32,36,2065,0,10,-8
546,554,42,31,2065,3,11,-8
547,555,52,45,2072,5,11,-2
548,556,39,36,2055,3,12,-4
549,557,23,36,2060,7,13,-5
550,558,21,25,2056,4,10,0
551,559,30,35,2061,3,9,-4
552,560,37,30,2070,3,12,-9
553,561,25,35,2068,1,12,-12
554,562,32,35,2070,1,7,-9
555,563,42,35,2073,4,8,-4
556,564,27,26,2056,4,8,0
557,565,27,19,2073,4,10,0
558,566,30,30,2065,4,11,0
559,567,34,45,2064,4,10,-2
560,568,32,37,2079,-1,12,-7
561,569,26,36,2061,-1,13,-2
562,570,22,39,2058,-1,9,-4
563,571,25,25,2060,-1,9,-7
564,572,25,22,2064,2,8,-8
565,573,22,24,2065,3,6,-5
566,574,20,30,2051,2,4,-3
567,575,31,40,2045,1,7,-2
568,576,21,30,2059,3,12,1
569,577,29,35,2058,4,11,-1
570,578,29,41,2070,2,8,-2
571,579,23,36,2056,0,5,-3
572,580,23,32,2071,5,5,-3
573,581,36,33,2056,8,6,-4
574,582,30,33,2064,7,4,-3
575,583,25,36,2071,5,3,0
576,584,30,54,2076,3,6,-5
577,585,34,42,2069,0,7,-8
578,586,45,37,2070,3,4,-2
579,587,44,44,2069,3,5,0
580,588,40,43,2069,1,6,-1
581,589,28,35,2041,1,1,-2
582,590,37,41,2054,2,1,1
583,591,35,31,2070,0,3,4
584,592,29,42,2070,1,4,5
585,593,37,46,2067,3,5,-2
586,594,29,41,2051,0,7,-5
587,595,39,42,2049,-4,7,-2
588,597,39,40,2065,-2,5,3
589,598,35,42,2077,1,6,-1
590,599,37,29,2054,3,7,3
591,600,34,34,2054,2,8,1
592,601,34,37,2054,-1,7,-3
593,602,31,42,2064,2,4,-3
594,603,31,42,2070,-5,5,-1
595,604,28,37,2059,-5,6,2
596,605,40,40,2048,-2,1,-3
597,606,44,39,2051,-1,0,0
598,607,43,30,2050,-1,1,-1
599,608,29,35,2064,2,2,-4
600,609,18,45,2061,2,4,0
601,610,49,39,2062,1,3,2
602,610,48,45,2044,-4,2,-2
603,611,43,41,2054,-2,6,0
604,612,39,39,2070,3,6,0
605,613,33,36,2066,3,1,-1
606,614,40,36,2068,6,-3,1
607,615,42,46,2059,4,-1,1
608,616,37,34,2045,2,4,2
609,617,39,43,2053,-3,3,1
610,618,32,41,2077,-2,-1,2
611,619,37,42,2078,-2,-5,2
612,620,41,44,2066,0,-4,-3
613,621,52,53,2059,-3,-2,-4
614,622,29,53,2050,-4,1,-2
615,623,41,48,2053,-2,4,2
616,624,41,39,2080,-1,8,5
617,625,36,47,2060,-2,9,3
618,626,47,30,2045,0,4,3
619,627,35,40,2044,2,1,3
620,628,38,38,2054,-1,0,0
621,629,43,29,2045,-3,-2,-2
622,630,43,28,2050,0,-1,0
623,631,38,35,2055,1,4,2
624,632,33,40,2071,2,-2,-2
625,633,38,41,2073,1,-4,-3
626,634,40,43,2074,0,-5,-3
627,635,36,50,2055,2,-2,-2
628,636,42,37,2048,0,-4,2
629,637,35,33,2066,-2,-4,5
630,639,34,30,2072,-2,-1,1
631,640,34,36,2055,-5,0,-2
632,641,36,34,2055,-4,-3,-2
633,642,38,34,2057,-5,2,0
634,643,35,34,2054,-3,0,0
635,644,27,40,2064,0,2,-4
636,645,25,32,2079,-3,0,1
637,646,26,31,2069,-2,-3,1
638,647,23,31,2062,-3,1,0
639,648,32,25,2055,-5,-4,0
640,649,32,31,2054,-5,-8,-1
641,650,23,36,2064,-5,-5,0
642,651,26,37,2056,-6,-4,0
643,652,21,26,2079,-5,-8,-1
644,654,29,28,2065,-1,-7,-2
645,655,33,26,2068,1,-5,-2
646,656,31,33,2071,-3,-7,-3
647,657,25,40,2076,-7,-5,-4
648,658,34,34,2058,0,-3,-2
649,659,34,21,2074,0,1,-2
650,660,26,19,2067,-1,-3,-3
651,661,32,18,2066,-1,-7,-1
652,662,40,22,2060,0,-6,-3
653,663,30,28,2075,0,-7,-2
654,664,28,34,2070,-4,-10,-7
655,665,23,44,2067,-5,-14,-7
656,666,22,38,2053,-2,-11,-4
657,667,13,33,2044,-3,-6,-7
658,666,29,15,2052,-5,-4,0
659,667,33,29,2069,-5,-3,2
660,668,39,46,2079,-2,-6,3
661,669,34,42,2066,0,-12,1
662,670,36,37,2064,0,-10,0
663,671,22,28,2064,0,-12,-4
664,672,22,27,2067,2,-10,-6
665,673,31,42,2063,3,-15,-5
666,674,30,44,2058,1,-15,-3
667,675,29,37,2057,-4,-14,0
668,676,38,36,2048,-2,-14,3
669,677,24,41,2069,-4,-9,1
670,678,26,35,2052,-7,-5,-6
671,679,33,18,2036,-5,-9,-4
672,680,44,28,2046,-4,-9,-2
673,681,38,42,2051,-1,-13,3
674,682,29,41,2054,0,-14,1
675,683,29,33,2051,0,-14,-3
676,684,25,27,2055,0,-17,-4
677,685,39,30,2059,-3,-21,-6
678,686,43,34,2062,-2,-20,-8
679,687,48,39,2055,-1,-13,-4
680,688,45,44,2062,-2,-8,-1
681,689,43,32,2060,-4,-10,3
682,690,38,36,2064,-9,-15,0
683,691,27,27,2054,-7,-11,2
684,692,29,31,2058,-1,-10,7
685,693,33,49,2044,-1,-7,7
686,694,25,40,2060,-3,-6,6
687,695,38,42,2061,-7,-5,3
688,696,38,43,2062,-5,-11,1
689,697,36,38,2051,-3,-16,1
690,698,35,43,2058,-4,-17,2
691,699,42,41,2075,-3,-13,-2
692,700,41,34,2053,0,-13,-2
693,701,45,43,2065,-1,-17,0
694,702,43,35,2054,-3,-17,4
695,703,42,31,2059,-4,-13,1
696,704,44,29,2064,-5,-16,0
697,705,44,38,2069,-7,-17,-1
698,706,53,47,2062,-5,-15,2
699,707,39,38,2044,-2,-16,2
700,708,39,45,2053,-4,-15,-1
701,709,39,34,2046,-6,-13,1
702,710,28,33,2028,0,-9,5
703,711,42,37,2048,4,-12,6
704,712,32,37,2051,0,-16,4
705,713,45,37,2050,-5,-14,4
706,714,50,44,2058,-6,-13,4
707,715,54,39,2062,-8,-13,3
708,716,49,33,2081,-5,-14,-1
709,717,61,32,2070,-1,-14,-6
710,718,46,25,2048,-4,-18,-3
711,719,46,36,2053,-4,-18,1
712,720,45,35,2068,-5,-16,-1
713,721,44,28,2070,-9,-10,0
714,722,52,31,2077,-12,-12,2
715,723,48,38,2064,-10,-16,5
716,724,49,31,2052,-5,-20,4
717,725,47,41,2052,-5,-17,1
718,726,42,35,2046,-5,-14,0
719,727,48,26,2053,-3,-16,4
720,728,48,39,2065,-2,-15,5
721,729,45,38,2065,-1,-12,1
722,730,46,37,2066,-2,-16,-2
723,731,50,44,2048,-6,-19,-4
724,732,46,33,2055,-5,-16,1
725,733,46,37,2053,-6,-15,2
726,734,45,31,2056,-4,-14,3
727,735,44,27,2054,-7,-12,2
728,736,54,36,2063,-5,-13,1
729,737,50,33,2058,-5,-17,-2
730,738,40,29,2049,-3,-18,-3
731,739,49,42,2047,-6,-15,0
732,740,48,37,2054,-8,-18,2
733,741,40,31,2065,-6,-23,4
734,742,48,27,2060,-7,-24,3
735,743,48,26,2067,-7,-18,-1
736,744,44,31,2067,-5,-12,-2
737,745,47,34,2065,-5,-13,0
738,746,42,30,2055,-5,-17,5
739,747,49,26,2052,-5,-17,0
740,748,56,28,2055,-6,-15,-2
741,749,46,28,2080,-4,-12,-4
742,750,49,32,2062,-6,-10,-3
743,751,53,42,2051,-7,-13,3
744,752,55,29,2070,-8,-18,1
745,753,47,42,2068,-5,-19,-2
746,754,53,34,2055,0,-18,-2
747,755,57,34,2067,-2,-18,1
748,756,54,31,2053,-3,-17,-1
749,757,56,31,2073,-7,-14,-3
750,758,44,32,2078,-10,-14,-3
751,759,44,17,2058,-7,-16,0
752,760,38,17,2053,-6,-19,5
753,761,44,30,2054,-7,-19,4
754,762,49,35,2060,-8,-12,-1
755,763,45,32,2061,-6,-12,-1
756,764,56,29,2054,-5,-15,0
757,765,56,34,2061,-6,-20,-2
758,766,50,36,2064,-7,-17,-2
759,767,49,31,2060,-7,-20,1
760,768,53,24,2060,-7,-21,0
761,769,53,18,2064,-8,-19,1
762,770,56,20,2065,-5,-19,2
763,771,47,25,2052,-6,-19,2
764,772,39,21,2066,-6,-13,2
765,773,43,25,2066,-6,-13,2
766,774,55,21,2063,-7,-14,1
767,775,51,26,2072,-2,-14,2
768,776,59,39,2069,-6,-14,0
769,777,52,29,2060,-8,-16,0
770,778,42,22,2070,-4,-11,0
771,779,52,15,2062,0,-12,0
772,780,54,25,2061,1,-14,1
773,781,50,33,2062,-1,-13,2
774,782,50,26,2066,-4,-17,1
775,783,58,23,2058,-5,-17,0
776,784,55,35,2066,1,-16,-2
777,785,63,30,2065,3,-15,4
778,786,59,25,2064,0,-13,7
779,787,52,33,2036,-2,-10,6
780,788,54,41,2041,-4,-12,1
781,789,52,30,2060,-3,-13,5
782,790,66,28,2055,-4,-12,8
783,791,64,32,2063,-3,-9,7
784,792,65,36,2059,-5,-11,8
785,793,54,40,2059,-7,-15,2
786,794,49,28,2061,-3,-19,1
787,795,54,36,2064,-1,-14,4
788,796,60,35,2051,-4,-7,7
789,797,53,31,2047,-3,-2,8
790,798,49,33,2044,-1,0,5
791,799,57,28,2063,3,-5,4
792,800,50,35,2059,4,-13,2
793,801,63,33,2044,2,-10,0
794,802,71,25,2055,-4,-9,0
795,803,62,21,2067,-5,-13,1
796,804,64,27,2060,-7,-15,1
797,805,55,38,2055,-5,-10,1
798,806,58,28,2062,-2,-8,2
799,807,68,27,2073,-4,-7,3
800,808,72,25,2060,-5,-8,2
801,809,78,29,2061,-4,-11,2
802,810,71,22,2066,-4,-13,2
803,811,66,32,2059,-8,-11,1
804,812,64,31,2064,-6,-11,3
805,813,61,31,2046,-2,-13,7
806,814,66,42,2042,-2,-14,3
807,815,61,40,2059,-5,-12,-1
808,816,65,35,2065,-2,-5,-1
809,817,64,42,2053,-1,-8,1
810,818,69,43,2050,-3,-8,2
811,819,62,21,2053,0,-8,2
812,820,65,36,2057,-2,-8,4
813,821,61,29,2046,-8,-6,2
814,822,61,41,2058,-7,-8,3
815,823,63,41,2058,-2,-11,3
816,824,78,33,2061,1,-10,4
817,825,68,32,2063,0,-9,1
818,826,76,29,2072,-3,-9,2
819,827,74,42,2054,-4,-9,3
820,828,61,44,2062,-3,-6,3
821,829,66,32,2054,0,-2,2
822,830,75,25,2072,-5,-3,4
823,831,61,28,2059,-4,-2,2
824,832,65,26,2053,0,-1,1
825,833,64,29,2039,-1,-6,4
826,834,63,33,2057,0,-8,0
827,835,63,41,2061,0,-7,0
828,836,73,31,2041,-2,-4,2
829,837,64,21,2063,-3,-1,5
830,838,52,27,2043,0,-2,3
831,839,62,37,2053,-5,-3,-2
832,840,59,41,2041,-5,2,-3
833,841,50,40,2049,-3,-8,0
834,842,53,35,2046,0,-7,4
835,843,54,29,2053,-1,-3,1
836,844,62,25,2065,1,0,0
837,845,53,26,2071,3,-2,1
838,846,57,20,2055,-1,0,0
839,847,67,28,2053,-1,-5,0
840,847,69,29,2062,2,-3,0
841,848,59,18,2066,0,-2,4
842,849,55,17,2059,0,-2,3
843,850,52,29,2069,1,-4,0
844,851,55,22,2072,4,-3,0
845,852,57,23,2070,3,-4,3
846,853,52,22,2073,1,0,4
847,854,52,33,2073,1,1,4
848,855,49,34,2071,0,1,3
849,856,44,35,2067,-5,-5,-4
850,857,53,31,2068,0,-3,-7
851,858,55,33,2045,-2,4,-5
852,859,52,40,2062,-5,6,1
853,860,53,28,2065,-5,3,3
854,862,46,12,2055,0,-2,0
855,863,48,34,2051,2,-1,-2
856,864,53,26,2066,0,0,-1
857,865,61,25,2054,-1,-2,-3
858,866,53,14,2065,0,3,-2
859,867,60,24,2061,0,9,1
860,868,53,29,2077,-1,2,2
861,869,57,19,2057,-2,-4,1
862,870,48,26,2067,-4,-1,-3
863,871,54,26,2068,0,6,-1
864,872,63,19,2066,7,11,0
865,873,61,24,2053,4,9,-2
866,874,63,20,2055,-3,2,-1
867,875,57,24,2059,-3,1,-6
868,876,49,22,2068,1,7,-7
869,877,54,30,2066,2,7,-3
870,878,67,17,2067,5,-1,-1
871,879,62,19,2057,6,-4,1
872,880,54,28,2048,3,-2,3
873,881,56,35,2042,0,6,2
874,882,60,31,2056,1,9,0
875,883,54,12,2057,1,8,1
876,884,53,24,2053,3,6,2
877,885,50,28,2065,3,5,4
878,886,63,29,2064,1,5,2
879,887,48,30,2062,1,7,-2
880,888,56,35,2065,4,10,-2
881,889,62,39,2064,4,7,-4
882,889,64,38,2040,3,5,-1
883,890,64,20,2046,-1,1,2
884,891,57,26,2045,0,3,8
885,892,55,26,2046,5,7,4
886,893,40,36,2051,4,13,-2
887,894,58,41,2054,0,7,-3
888,895,62,30,2063,0,-2,0
889,896,69,22,2076,3,0,-3
890,897,58,26,2063,0,5,0
891,898,51,30,2064,-1,6,1
892,899,57,32,2053,1,5,-1
893,900,57,33,2059,2,11,-1
894,901,48,30,2053,4,12,-1
895,902,47,27,2056,5,6,-2
896,904,47,17,2063,6,5,-2
897,905,58,36,2061,3,4,0
898,906,58,42,2062,1,5,3
899,907,62,38,2069,3,7,-1
900,908,57,32,2063,5,7,-2
901,909,58,24,2063,6,11,0
902,910,57,30,2043,4,12,2
903,911,62,29,2048,5,9,3
904,912,53,37,2055,5,7,3
905,913,65,36,2059,4,10,6
906,914,68,38,2059,1,7,3
907,915,65,41,2061,3,8,1
908,916,60,36,2056,3,13,1
909,917,65,38,2041,10,20,4
910,918,49,33,2053,9,16,3
911,919,52,43,2073,1,8,4
912,920,54,42,2053,-1,2,1
913,921,42,22,2059,6,8,-4
914,922,54,45,2064,4,12,-6
915,923,56,33,2073,2,18,-4
916,924,54,42,2068,3,17,2
917,925,63,48,2062,2,10,0
918,926,60,35,2056,6,3,-3
919,927,57,27,2056,2,9,-3
920,928,55,25,2065,2,16,-3
921,929,61,20,2062,0,22,0
922,930,54,33,2058,-2,15,5
923,931,51,33,2049,1,10,4
924,931,52,25,2060,1,7,3
925,932,51,27,2065,3,9,1
926,933,51,40,2064,9,9,-1
927,934,52,39,2085,10,10,-3
928,935,64,36,2059,9,14,-4
929,936,63,28,2060,0,12,-3
930,937,54,35,2056,1,10,-2
931,938,41,27,2057,1,8,-4
932,939,35,24,2050,3,10,-5
933,940,53,24,2058,-1,14,2
934,941,60,29,2061,1,16,5
935,942,64,39,2059,5,12,5
936,943,64,38,2060,6,8,1
937,944,57,23,2088,4,8,-4
938,946,55,13,2083,3,9,-8
939,947,49,33,2060,3,14,-1
940,948,47,35,2058,6,14,2
941,949,46,34,2059,7,19,3
942,950,42,35,2074,8,21,7
943,951,43,34,2073,8,16,8
944,952,48,36,2048,9,12,3
945,953,54,35,2049,6,13,2
946,954,68,25,2038,5,10,3
947,955,55,26,2037,6,5,-3
948,956,43,24,2060,2,10,0
949,957,33,25,2061,5,15,5
950,958,43,14,2062,0,18,4
951,959,40,15,2048,1,18,3
952,960,43,41,2052,4,13,2
953,961,52,30,2051,7,17,-5
954,962,60,32,2080,6,24,-5
955,963,56,35,2072,4,17,-3
956,964,41,23,2077,7,10,-5
957,965,43,22,2069,5,13,-3
958,966,42,18,2078,9,14,-1
959,967,44,27,2081,11,12,0
960,968,40,31,2065,6,11,-4
961,969,40,37,2055,5,16,-2
962,970,49,31,2054,2,19,-3
963,971,51,9,2046,5,19,1
964,972,49,30,2056,9,17,5
965,973,54,25,2057,11,15,5
966,973,42,31,2063,8,11,1
967,974,36,36,2066,2,8,-1
968,975,46,41,2060,6,10,-1
969,976,62,41,2063,5,13,-1
970,977,53,23,2065,5,17,-4
971,978,50,31,2067,4,12,-7
972,979,49,29,2044,-1,9,-7
973,980,55,37,2044,-1,9,-1
974,981,40,36,2048,4,10,1
975,982,36,34,2048,7,13,2
976,983,45,29,2057,6,16,2
977,984,28,24,2063,4,17,1
978,985,39,32,2057,5,13,-6
979,986,43,28,2062,4,14,-5
980,988,42,38,2065,5,13,-3
981,989,45,40,2082,6,8,-4
982,990,50,45,2062,10,12,-3
983,991,43,47,2049,8,14,-1
984,992,40,44,2065,2,11,-2
985,993,44,29,2073,3,9,-3
986,994,45,27,2063,3,15,-4
987,995,53,36,2064,2,17,-2
988,996,46,40,2060,3,18,0
989,997,52,48,2062,2,9,-2
990,998,44,36,2056,0,8,-5
991,999,45,34,2056,7,11,-3
992,1000,55,48,2051,12,18,-3
993,1001,49,45,2063,9,20,2
994,1002,36,47,2025,5,15,2
995,1003,42,29,2034,6,16,-3
996,1004,37,31,2060,6,16,0
997,1005,51,42,2063,6,16,1
998,1006,54,41,2076,5,14,-3
999,1007,51,48,2072,3,14,2
1000,1008,52,40,2074,3,14,1
1001,1009,51,29,2071,-1,13,-2
1002,1010,44,38,2059,-4,15,-6
1003,1011,43,34,2064,-6,17,-3
1004,1012,48,43,2084,-1,13,1
1005,1013,47,44,2077,2,8,-1
1006,1014,52,40,2060,1,10,0
1007,1015,48,44,2047,1,15,2
1008,1015,49,38,2039,4,13,-3
1009,1016,40,38,2045,2,10,-4
1010,1017,48,40,2063,0,13,-3
1011,1018,49,35,2063,-1,16,0
1012,1019,54,39,2059,-2,15,-2
1013,1020,53,34,2043,-1,15,-3
1014,1021,44,34,2057,-2,18,-5
1015,1022,53,40,2054,-2,19,2
1016,1023,52,39,2061,-1,16,2
1017,1024,44,44,2061,-4,13,-2
1018,1025,36,39,2068,-1,11,-5
1019,1026,31,34,2066,2,13,-4
1020,1027,35,36,2064,4,12,0
1021,1028,49,21,2055,2,15,4
1022,1030,56,38,2053,4,16,4
1023,1031,54,35,2065,5,17,-1
1024,1032,42,34,2061,7,14,-3
1025,1033,49,32,2066,6,12,0
1026,1034,41,35,2056,7,13,5
1027,1035,34,42,2055,6,12,3
1028,1036,44,39,2045,3,13,-2
1029,1037,41,38,2062,0,13,-3
1030,1038,48,55,2050,0,15,1
1031,1039,41,35,2054,3,11,-2
1032,1040,40,27,2051,0,8,-5
1033,1041,34,23,2068,2,9,-3
1034,1042,41,41,2051,5,7,-2
1035,1043,36,45,2066,5,7,-1
1036,1044,33,37,2062,2,7,-4
1037,1045,38,34,2062,-1,9,-1
1038,1046,39,35,2051,0,13,3
1039,1047,38,35,2063,5,15,1
1040,1048,30,22,2072,3,10,-3
1041,1049,49,31,2069,2,9,-3
1042,1050,48,33,2064,1,8,2
1043,1051,48,32,2070,0,13,3
1044,1052,44,35,2048,-1,16,-2
1045,1053,54,29,2052,-1,15,-3
1046,1054,42,35,2058,-4,13,-5
1047,1055,38,45,2049,-4,6,-2
1048,1056,36,41,2054,-1,6,3
1049,1057,31,29,2070,-1,8,4
1050,1057,35,43,2075,0,9,3
1051,1058,40,35,2063,2,10,-2
1052,1059,41,42,2082,1,11,-6
1053,1060,45,45,2064,3,8,-5
1054,1061,33,36,2067,4,4,-1
1055,1062,33,35,2060,3,2,-2
1056,1063,43,35,2065,2,4,-5
1057,1064,37,29,2079,-1,7,-6
1058,1065,34,32,2081,-4,6,-6
1059,1066,39,43,2068,0,5,0
1060,1067,40,36,2057,-1,6,2
1061,1068,30,31,2038,-4,7,2
1062,1069,28,38,2063,-5,7,-2
1063,1070,29,41,2057,0,10,-1
1064,1072,50,36,2073,-2,10,-1
1065,1073,50,29,2069,-3,10,-5
1066,1074,36,33,2066,0,10,-2
1067,1075,37,32,2068,2,8,-2
1068,1076,33,28,2075,2,6,2
1069,1077,37,34,2059,1,1,1
1070,1078,36,45,2062,0,2,-3
1071,1079,38,43,2072,-2,8,-5
1072,1080,37,36,2076,1,6,-6
1073,1081,24,38,2062,0,8,-3
1074,1082,31,43,2060,-2,10,-1
1075,1083,41,30,2049,-1,6,0
1076,1084,47,32,2052,0,6,-2
1077,1085,33,29,2059,0,4,-4
1078,1086,35,31,2075,2,1,-4
1079,1087,44,39,2077,0,2,-4
1080,1088,37,48,2076,2,5,-2
1081,1089,40,42,2079,3,7,1
1082,1090,28,37,2068,-1,6,1
1083,1091,32,36,2070,1,2,-4
1084,1092,36,40,2058,1,-5,-5
1085,1093,34,43,2070,1,-8,-3
1086,1094,33,39,2060,1,-3,-7
1087,1095,44,40,2058,-2,4,-1
1088,1096,54,42,2045,-2,4,-1
1089,1097,34,40,2042,-1,4,0
1090,1098,40,44,2038,-1,5,-1
1091,1099,37,43,2065,1,3,-2
1092,1099,42,42,2057,5,4,2
1093,1100,55,48,2080,1,5,3
1094,1101,42,42,2070,2,0,3
1095,1102,34,38,2058,0,1,1
1096,1103,28,32,2055,-3,2,-2
1097,1104,37,44,2072,-5,6,-3
1098,1105,54,36,2061,-4,8,-1
1099,1106,44,45,2060,-4,4,-3
1100,1107,38,48,2058,1,3,-2
1101,1108,42,39,2057,-1,-1,-2
1102,1109,38,27,2063,-2,-1,-2
1103,1110,36,39,2074,0,-3,-4
1104,1111,47,34,2077,1,1,-3
1105,1112,45,44,2069,-1,6,-1
1106,1114,45,49,2066,-3,2,-1
1107,1115,48,45,2061,-2,-1,1
1108,1116,48,44,2047,-1,6,-3
1109,1117,31,40,2059,-1,12,-4
1110,1118,33,46,2067,-5,6,-3
1111,1119,27,33,2051,-7,-1,2
1112,1120,25,44,2055,-9,-2,1
1113,1121,38,42,2049,-10,-3,0
1114,1122,50,28,2064,-9,4,1
1115,1123,41,36,2055,-6,5,1
1116,1124,42,38,2065,-8,5,2
1117,1125,33,40,2067,-4,9,0
1118,1126,36,49,2070,-1,3,-2
1119,1127,35,48,2059,-3,-2,-3
1120,1128,33,45,2061,-7,-1,0
1121,1129,36,35,2048,-9,4,0
1122,1130,45,42,2065,-6,1,2
1123,1131,40,39,2073,-7,-1,2
1124,1132,34,29,2079,-7,-1,2
1125,1133,36,37,2078,-7,0,0
1126,1134,39,39,2058,-7,0,-1
1127,1135,33,40,2050,-3,-1,-4
1128,1136,38,37,2044,-3,1,-7
1129,1137,34,29,2046,-5,3,-3
1130,1138,29,42,2044,-7,-3,0
1131,1139,34,39,2054,-5,-6,0
1132,1140,34,19,2046,-2,-7,-1
1133,1141,37,38,2076,-1,-4,0
1134,1141,41,37,2077,0,-1,1
1135,1142,36,38,2059,-1,4,3
1136,1143,25,27,2050,-8,3,5
1137,1144,30,17,2056,-5,0,2
1138,1145,34,30,2053,-2,-8,-1
1139,1146,32,33,2067,-3,-5,-1
1140,1147,28,27,2058,-7,-4,0
1141,1148,35,27,2053,-10,-4,1
1142,1149,25,40,2052,-7,0,-3
1143,1150,31,45,2060,-5,1,-4
1144,1151,37,43,2049,-2,-3,-1
1145,1152,25,45,2062,-2,-2,3
1146,1153,29,42,2055,-4,-5,-2
1147,1154,30,35,2047,-4,-10,-4
1148,1156,33,34,2057,-4,-10,2
1149,1157,37,38,2060,-3,-8,4
1150,1158,38,29,2058,-3,-4,3
1151,1159,30,28,2048,-5,-7,-2
1152,1160,33,22,2046,-6,-12,-2
1153,1161,45,27,2040,-6,-11,2
1154,1162,33,34,2054,-4,-7,0
1155,1163,49,22,2039,-8,-2,0
1156,1164,33,20,2049,-8,-3,4
1157,1165,32,30,2060,-7,-7,0
1158,1166,31,29,2073,-4,-9,0
1159,1167,41,31,2057,3,-7,3
1160,1168,42,30,2057,3,-6,4
1161,1169,42,38,2055,0,-4,3
1162,1170,42,26,2064,1,-3,0
1163,1171,32,31,2060,-2,-10,1
1164,1172,32,28,2062,-5,-13,1
1165,1173,31,23,2066,-2,-8,-2
1166,1174,30,33,2073,-3,-4,-4
1167,1175,18,34,2070,-6,-9,2
1168,1176,29,35,2069,-6,-6,4
1169,1177,39,22,2066,-3,-10,2
1170,1178,41,22,2063,-2,-13,3
1171,1179,35,26,2058,-5,-9,1
1172,1180,41,19,2058,-6,-10,1
1173,1181,39,34,2058,-3,-7,3
1174,1182,36,43,2073,2,-2,-1
1175,1183,46,42,2091,-2,-5,-2
1176,1183,43,25,2075,-4,-9,-2
1177,1184,42,25,2056,-7,-11,1
1178,1185,27,29,2060,-5,-13,5
1179,1186,29,32,2055,-3,-12,3
1180,1187,40,40,2069,-5,-14,1
1181,1188,35,29,2071,-6,-11,-2
1182,1189,45,25,2067,-4,-7,1
1183,1190,45,32,2062,-3,-6,3
1184,1191,47,32,2047,-7,-6,3
1185,1192,57,28,2060,-8,-12,0
1186,1193,48,25,2062,-4,-15,2
1187,1194,50,23,2071,-7,-8,2
1188,1195,45,23,2057,-6,-3,3
1189,1196,41,18,2054,-3,-5,5
1190,1198,41,27,2045,-3,-10,5
1191,1199,48,32,2061,-2,-11,3
1192,1200,41,34,2051,-5,-12,4
1193,1201,45,38,2054,-7,-10,5
1194,1202,45,38,2061,-5,-6,2
1195,1203,42,28,2063,-5,-11,3
1196,1204,53,35,2060,-4,-9,6
1197,1205,55,42,2057,-3,-8,3
1198,1206,47,47,2057,-2,-4,5
1199,1207,46,29,2066,-4,-6,4
1200,1208,51,31,2072,-3,-12,2
1201,1209,31,40,2058,-7,-15,4
1202,1210,40,32,2066,-9,-14,2
1203,1211,51,32,2053,-1,-7,4
1204,1212,58,30,2064,-2,-7,3
1205,1213,42,32,2046,-2,-9,-3
1206,1214,38,38,2049,-6,-11,-2
1207,1215,35,41,2048,-6,-11,3
1208,1216,48,47,2067,-6,-11,0
1209,1217,49,38,2062,-6,-9,-1
1210,1218,40,43,2071,-6,-11,0
1211,1219,47,38,2056,-6,-10,2
1212,1220,48,41,2063,-5,-11,3
1213,1221,38,42,2043,-8,-13,1
1214,1222,44,19,2059,-11,-11,-1
1215,1223,34,27,2067,-10,-9,1
1216,1224,44,31,2062,-7,-8,1
1217,1225,45,30,2054,-5,-10,1
1218,1225,40,25,2052,-7,-10,0
1219,1226,50,30,2063,-7,-12,-3
1220,1227,57,27,2063,-7,-15,1
1221,1228,56,25,2070,-7,-15,1
1222,1229,51,32,2064,-8,-9,1
1223,1230,45,41,2066,-4,-13,-2
1224,1231,40,28,2063,-2,-11,-1
1225,1232,40,30,2070,-3,-7,1
1226,1233,47,34,2059,-5,-6,1
1227,1234,50,40,2051,-9,-9,-2
1228,1235,42,35,2056,-10,-11,2
1229,1236,53,26,2056,-6,-13,3
1230,1237,49,34,2050,-5,-12,2
1231,1238,44,35,2058,-4,-10,0
1232,1240,52,21,2077,-6,-10,0
1233,1241,41,31,2077,-9,-13,4
1234,1242,48,19,2075,-7,-12,1
1235,1243,43,14,2076,-6,-7,7
1236,1244,46,18,2072,-6,-6,6
1237,1245,49,16,2054,-6,-11,3
1238,1246,41,26,2058,-2,-14,1
1239,1247,44,26,2055,-2,-11,-2
1240,1248,53,32,2050,-6,-12,-1
1241,1249,38,35,2066,-3,-10,3
1242,1250,37,18,2053,-5,-11,6
1243,1251,38,28,2067,-9,-16,1
1244,1252,43,23,2059,-6,-18,1
1245,1253,37,25,2081,-2,-12,-1
1246,1254,39,40,2073,-4,-10,-1
1247,1255,47,26,2068,-2,-14,1
1248,1256,39,23,2065,-3,-19,-1
1249,1257,44,22,2059,-4,-15,-4
1250,1258,45,26,2060,-4,-13,3
1251,1259,45,19,2058,-2,-11,4
1252,1260,43,24,2060,0,-12,1
1253,1261,52,38,2059,-7,-13,3
1254,1262,43,33,2068,-6,-15,1
1255,1263,41,22,2052,-8,-13,2
1256,1264,50,33,2060,-7,-9,5
1257,1265,46,24,2066,-7,-10,2
1258,1266,34,26,2064,-3,-10,-2
1259,1267,41,26,2053,-5,-13,0
1260,1267,48,35,2064,-3,-14,4
1261,1268,34,28,2060,-4,-12,6
1262,1269,47,36,2047,-5,-8,3
1263,1270,43,27,2035,-5,-5,2
1264,1271,55,28,2072,-4,-9,0
1265,1272,57,26,2062,0,-16,-2
1266,1273,53,11,2071,0,-14,-4
1267,1274,59,31,2060,-4,-11,-2
1268,1275,63,35,2055,-6,-14,2
1269,1276,59,30,2048,-3,-14,2
1270,1277,52,26,2035,2,-15,-3
1271,1278,51,28,2047,0,-15,0
1272,1279,50,25,2063,-2,-15,3
1273,1280,59,38,2059,-6,-20,9
1274,1282,47,28,2059,-3,-16,8
1275,1283,48,38,2063,0,-15,1
1276,1284,56,32,2048,2,-12,-2
1277,1285,60,32,2060,-1,-13,-1
1278,1286,53,29,2067,-3,-12,2
1279,1287,50,37,2051,1,-10,1
1280,1288,56,36,2059,0,-7,2
1281,1289,45,29,2070,-3,-7,3
1282,1290,46,25,2056,-5,-11,1
1283,1291,49,25,2074,-3,-6,3
1284,1292,56,14,2068,-5,-7,1
1285,1293,60,20,2072,-2,-10,1
1286,1294,60,32,2054,-1,-13,2
1287,1295,59,25,2046,2,-14,4
1288,1296,56,28,2055,-1,-13,1
1289,1297,59,29,2060,1,-7,-1
1290,1298,55,29,2076,4,-4,1
1291,1299,59,25,2084,3,-6,3
1292,1300,63,29,2060,-1,-12,0
1293,1301,64,44,2051,-4,-12,0
1294,1302,49,21,2054,-3,-9,2
1295,1303,66,32,2062,-4,-10,1
1296,1304,57,30,2052,0,-11,-1
1297,1305,54,28,2052,5,-8,-1
1298,1306,59,23,2055,-1,-5,2
1299,1307,63,29,2054,-3,-6,1
1300,1308,57,28,2060,0,-7,2
1301,1309,54,34,2057,1,-8,3
1302,1309,58,33,2054,-1,-8,2
1303,1310,73,22,2057,-3,-10,2
1304,1311,54,28,2062,-2,-10,2
1305,1312,60,41,2057,0,-9,2
1306,1313,72,36,2064,2,-4,2
1307,1314,61,33,2054,-1,-7,3
1308,1315,50,19,2051,-3,-8,4
1309,1316,61,31,2055,-6,-6,2
1310,1317,54,40,2069,-4,-6,-1
1311,1318,48,29,2065,-4,-7,-1
1312,1319,58,26,2058,-1,-5,3
1313,1320,63,26,2052,0,-2,5
1314,1321,59,36,2053,1,-2,4
1315,1322,50,39,2062,1,-7,-1
1316,1324,52,33,2044,-2,-11,0
1317,1325,65,37,2046,-6,-15,0
1318,1326,59,30,2053,-2,-10,1
1319,1327,51,22,2051,2,-6,1
1320,1328,54,25,2053,0,-2,2
1321,1329,53,27,2056,-1,-2,0
1322,1330,57,32,2054,0,-6,3
1323,1331,65,35,2071,1,-5,1
1324,1332,75,31,2073,3,-2,-3
1325,1333,65,28,2069,-1,-3,0
1326,1334,57,25,2050,-2,-1,0
1327,1335,51,29,2062,-1,-8,3
1328,1336,57,27,2046,-1,-10,0
1329,1337,57,27,2063,1,-7,-1
1330,1338,41,28,2057,3,-2,0
1331,1339,54,20,2066,3,5,0
1332,1340,58,25,2062,-2,5,-1
1333,1341,52,32,2059,-1,1,1
1334,1342,56,18,2055,2,-4,4
1335,1343,55,29,2057,2,-1,3
1336,1344,59,30,2054,0,2,3
1337,1345,61,23,2067,2,-1,2
1338,1346,58,15,2053,3,-3,-1
1339,1347,58,29,2065,2,-1,0
1340,1348,48,34,2073,2,0,1
1341,1349,60,25,2068,-4,-2,0
1342,1350,51,35,2061,-3,-1,-2
1343,1351,46,26,2051,-1,-2,-1
1344,1351,58,29,2060,2,-5,-1
1345,1352,54,33,2050,2,-6,2
1346,1353,52,21,2050,1,-5,0
1347,1354,46,25,2064,1,-3,-4
1348,1355,58,17,2062,4,-3,-6
1349,1356,68,29,2053,5,-2,-2
1350,1357,58,26,2052,1,4,2
1351,1358,51,9,2062,1,5,3
1352,1359,54,26,2060,0,6,3
1353,1360,68,31,2055,2,3,2
1354,1361,68,35,2067,2,5,-3
1355,1362,57,34,2072,7,6,4
1356,1363,61,21,2074,5,6,6
1357,1364,54,20,2059,0,3,4
1358,1366,56,20,2066,-1,5,-1
1359,1367,71,43,2053,2,4,-2
1360,1368,62,26,2059,5,4,-3
1361,1369,65,25,2051,4,4,-1
1362,1370,65,21,2073,5,2,-1
1363,1371,59,25,2073,4,1,0
1364,1372,63,19,2074,2,5,1
1365,1373,59,24,2076,4,5,1
1366,1374,66,30,2084,7,-1,3
1367,1375,62,33,2066,6,-1,7
1368,1376,57,32,2065,5,3,7
1369,1377,64,28,2058,4,3,1
1370,1378,71,32,2058,-1,5,-1
1371,1379,64,40,2066,0,3,-3
1372,1380,63,33,2056,4,3,-1
1373,1381,47,32,2070,6,2,0
1374,1382,46,37,2077,3,0,2
1375,1383,50,31,2062,-1,1,3
1376,1384,51,32,2066,2,0,1
1377,1385,55,40,2060,1,2,0
1378,1386,49,25,2064,2,2,0
1379,1387,63,33,2060,5,4,-3
1380,1388,69,38,2059,5,7,-2
1381,1389,52,33,2046,4,9,0
1382,1390,39,35,2042,6,3,0
1383,1391,59,25,2058,10,-1,-1
1384,1392,58,24,2053,9,2,-1
1385,1393,63,28,2058,9,5,-5
1386,1393,67,32,2049,9,4,-6
1387,1394,54,37,2062,9,1,-5
1388,1395,49,32,2059,3,0,0
1389,1396,54,30,2042,-2,1,0
1390,1397,48,35,2073,-1,5,-4
1391,1398,65,23,2075,4,11,-1
1392,1399,70,34,2057,10,12,0
1393,1400,65,38,2060,9,12,-2
1394,1401,55,31,2063,5,15,-3
1395,1402,58,35,2081,1,7,-6
1396,1403,62,43,2058,2,9,-3
1397,1404,61,41,2058,6,15,-1
1398,1405,53,40,2054,3,11,0
1399,1406,63,31,2064,5,3,2
1400,1408,64,41,2058,6,4,3
1401,1409,61,32,2068,8,4,0
1402,1410,53,31,2062,6,9,1
1403,1411,54,34,2069,4,12,2
1404,1412,64,27,2064,2,11,-1
1405,1413,72,32,2055,5,8,0
1406,1414,59,32,2045,4,8,-5
1407,1415,55,32,2053,5,9,-5
1408,1416,59,28,2064,4,9,-3
1409,1417,59,33,2060,5,10,2
1410,1418,60,45,2058,4,7,3
1411,1419,65,37,2057,4,9,2
1412,1420,49,39,2073,3,8,0
1413,1421,51,34,2075,5,12,1
1414,1421,55,28,2066,3,16,1
1415,1422,61,38,2045,-2,10,1
1416,1423,62,29,2060,1,5,0
1417,1424,50,28,2060,8,4,2
1418,1425,62,31,2069,7,8,2
1419,1426,49,45,2068,5,18,3
1420,1427,53,48,2056,8,16,1
1421,1428,62,22,2053,8,12,-2
1422,1429,63,41,2057,7,9,-4
1423,1430,52,32,2067,4,10,-6
1424,1431,57,31,2057,1,8,0
1425,1432,58,28,2050,1,12,2
1426,1433,45,16,2056,3,16,3
1427,1434,49,19,2068,4,15,1
1428,1435,60,15,2077,4,15,-3
1429,1436,62,29,2069,5,13,-3
1430,1437,50,36,2054,4,13,-2
1431,1438,59,38,2059,3,8,-3
1432,1439,49,30,2064,3,7,2
1433,1440,52,27,2059,2,14,-2
1434,1441,58,33,2040,3,18,-1
1435,1442,44,31,2050,7,17,-1
1436,1443,57,30,2061,7,13,1
1437,1444,40,40,2055,10,10,-1
1438,1445,48,34,2041,1,11,-3
1439,1446,58,28,2052,0,19,-2
1440,1447,60,37,2056,3,15,2
1441,1448,46,37,2062,1,14,1
1442,1450,32,52,2049,3,12,-2
1443,1451,45,47,2056,6,8,-2
1444,1452,52,39,2044,5,9,-1
1445,1453,55,40,2060,4,11,1
1446,1454,49,33,2055,4,11,0
1447,1455,46,27,2050,6,9,3
1448,1456,43,29,2064,6,6,2
1449,1457,52,26,2069,4,9,-2
1450,1458,48,33,2051,8,15,-4
1451,1459,43,23,2046,7,14,-3
1452,1460,43,28,2070,1,9,3
1453,1461,50,26,2063,4,11,3
1454,1462,52,39,2051,3,14,-1
1455,1463,49,35,2049,4,13,-2
1456,1463,49,35,2050,3,14,-1
1457,1464,53,40,2057,9,10,1
1458,1465,47,36,2050,4,6,0
1459,1466,47,32,2055,3,8,-4
1460,1467,55,25,2059,6,13,-4
1461,1468,53,30,2042,4,15,0
1462,1469,38,34,2058,5,13,0
1463,1470,38,39,2073,4,7,-1
1464,1471,49,30,2071,1,4,-3
1465,1472,55,31,2056,6,6,-1
1466,1473,46,29,2081,5,11,-2
1467,1474,38,26,2069,2,18,1
1468,1475,45,30,2063,5,18,3
1469,1476,49,39,2063,6,16,-1
1470,1477,47,39,2057,6,11,-3
1471,1478,40,34,2064,5,9,0
1472,1479,41,30,2057,6,6,2
1473,1480,51,38,2062,5,10,0
1474,1481,48,31,2049,3,11,-2
1475,1482,38,34,2035,10,14,-3
1476,1483,42,32,2051,10,21,-3
1477,1484,42,41,2079,7,18,-2
1478,1485,37,46,2070,2,15,1
1479,1486,45,38,2057,-1,17,1
1480,1487,45,28,2053,3,12,1
1481,1488,45,34,2057,3,7,0
1482,1489,36,42,2067,3,10,-2
1483,1490,47,38,2084,3,9,0
1484,1492,45,26,2052,-1,11,1
1485,1493,46,36,2046,1,16,0
1486,1494,45,31,2045,5,17,2
1487,1495,47,37,2061,5,13,1
1488,1496,46,34,2071,7,15,-1
1489,1497,43,33,2054,8,14,-3
1490,1498,49,29,2051,9,13,-5
1491,1499,43,36,2057,7,14,-6
1492,1500,53,43,2070,3,16,-6
1493,1501,42,48,2066,1,15,1
1494,1502,51,43,2071,1,13,4
1495,1503,39,37,2050,2,12,2
1496,1504,46,34,2051,3,9,2
1497,1505,42,35,2058,2,7,-1
1498,1505,52,38,2065,7,7,-2
1499,1506,62,46,2060,1,11,1
1500,1507,44,50,2063,1,13,0
1501,1508,49,53,2049,1,12,2
1502,1509,49,46,2063,2,12,2
1503,1510,49,46,2048,5,15,0
1504,1511,47,36,2064,2,15,0
1505,1512,48,40,2065,-1,14,0
1506,1513,46,31,2064,-1,10,-2
1507,1514,52,39,2054,-1,10,-1
1508,1515,48,36,2057,0,13,-3
1509,1516,36,39,2041,6,19,-5
1510,1517,40,41,2062,9,14,-2
1511,1518,41,47,2067,4,14,1
1512,1519,47,46,2056,0,8,1
1513,1520,35,37,2058,-1,7,-4
1514,1521,39,29,2053,-3,10,-6
1515,1522,37,50,2058,-3,13,-1
1516,1523,49,30,2049,-5,20,4
1517,1524,61,39,2075,-3,17,4
1518,1525,56,45,2049,0,8,3
1519,1526,45,40,2052,-2,8,0
1520,1527,47,41,2052,-4,10,0
1521,1528,50,30,2046,0,11,2
1522,1529,45,31,2050,7,11,2
1523,1530,46,40,2060,6,13,2
1524,1531,44,34,2062,0,18,-1
1525,1532,52,47,2064,3,19,2
1526,1534,50,34,2069,3,10,6
1527,1535,53,32,2065,-1,8,2
1528,1536,38,39,2062,-4,10,-2
1529,1537,41,31,2058,-4,8,-5
1530,1538,45,34,2046,-3,7,0
1531,1539,42,42,2056,-4,8,6
1532,1540,38,39,2046,-1,12,2
1533,1541,43,45,2050,-2,8,-3
1534,1542,44,29,2050,0,11,-4
1535,1543,36,42,2049,-1,14,-2
1536,1544,44,44,2053,0,13,-2
1537,1545,38,27,2060,-4,14,-2
1538,1546,42,36,2069,3,16,1
1539,1547,36,44,2059,5,12,3
1540,1548,37,45,2053,0,7,1
1541,1549,46,38,2048,-3,6,-1
1542,1550,38,27,2049,-5,9,2
1543,1551,33,37,2024,-6,10,4
1544,1552,26,31,2051,-4,4,4
1545,1553,28,37,2057,-1,6,2
1546,1554,46,35,2068,-3,10,-3
1547,1555,49,31,2051,-2,10,-3
1548,1556,49,39,2058,0,11,5
1549,1557,39,35,2060,2,9,5
1550,1558,39,40,2055,-1,10,4
1551,1559,34,42,2056,-4,9,2
1552,1560,31,34,2065,-3,7,0
1553,1561,39,44,2063,-2,6,3
1554,1561,28,31,2060,-6,8,3
1555,1562,35,29,2055,-5,7,-2
1556,1563,43,31,2066,-2,10,-7
1557,1564,41,27,2069,-3,9,-5
1558,1565,35,27,2060,-1,5,0
1559,1566,31,39,2069,0,8,1
1560,1567,32,51,2053,-1,6,-1
1561,1568,30,39,2080,-3,5,-5
1562,1569,30,35,2070,-2,7,-4
1563,1570,38,40,2063,1,7,1
1564,1571,42,33,2063,2,11,0
1565,1572,38,40,2064,0,9,3
1566,1573,42,46,2060,1,5,3
1567,1574,40,38,2055,-2,0,2
1568,1576,28,37,2049,-4,2,0
1569,1577,35,31,2048,-3,4,0
1570,1578,34,37,2065,0,9,1
1571,1579,32,44,2072,-2,7,3
1572,1580,45,36,2073,-1,0,-2
1573,1581,43,39,2075,-3,0,0
1574,1582,54,39,2064,-6,1,1
1575,1583,55,30,2055,-5,7,0
1576,1584,41,31,2050,-1,4,0
1577,1585,35,38,2068,5,8,1
1578,1586,50,48,2077,3,12,-1
1579,1587,30,47,2075,0,8,-1
1580,1588,32,45,2059,-3,5,3
1581,1589,35,42,2080,1,3,2
1582,1590,36,43,2061,1,-1,-2
1583,1591,45,44,2054,-2,3,-3
1584,1592,42,43,2064,-5,7,-4
1585,1593,37,47,2061,0,4,-1
1586,1594,37,35,2062,3,2,-1
1587,1595,37,27,2061,-2,4,0
1588,1596,39,31,2061,-6,2,-1
1589,1597,24,27,2054,-5,-2,-3
1590,1598,28,34,2047,-4,4,-5
1591,1599,32,46,2051,-4,7,-4
1592,1600,32,40,2062,-3,6,1
1593,1601,37,49,2053,-5,7,3
1594,1602,36,40,2046,-4,5,0
1595,1603,41,41,2060,-9,4,2
1596,1603,31,45,2060,-8,7,2
1597,1604,43,28,2076,-6,6,-1
1598,1605,43,30,2073,-1,-1,-4
1599,1606,40,39,2056,-3,-6,2
1600,1607,42,33,2056,-6,0,2
1601,1608,60,40,2049,-6,4,-3
1602,1609,51,35,2052,-5,-3,-2
1603,1610,32,35,2069,-3,-7,1
1604,1611,34,28,2072,-7,-3,-2
1605,1612,42,26,2063,-5,2,-2
1606,1613,52,31,2062,-6,8,-1
1607,1614,37,32,2053,-5,4,1
1608,1615,42,46,2055,-2,1,4
1609,1616,43,57,2065,-3,1,2
1610,1618,43,46,2053,-9,2,1
1611,1619,39,40,2059,-10,1,-1
1612,1620,34,44,2058,-9,0,-1
1613,1621,35,47,2048,-9,-1,-4
1614,1622,36,41,2066,-10,3,-2
1615,1623,34,34,2070,-7,3,-2
1616,1624,46,32,2052,-5,2,0
1617,1625,40,26,2057,-1,-5,2
1618,1626,34,41,2042,-3,-6,1
1619,1627,36,29,2056,-3,-5,3
1620,1628,41,39,2043,-7,-1,4
1621,1629,42,41,2055,-10,3,-2
1622,1630,39,30,2053,-11,-1,-5
1623,1631,32,34,2054,-8,-3,-1
1624,1632,36,34,2053,-4,-5,2
1625,1633,27,27,2068,-6,-4,1
1626,1634,33,33,2062,-8,-1,-1
1627,1635,45,30,2069,-7,-4,-1
1628,1636,40,32,2069,-9,-2,0
1629,1637,30,27,2062,-9,0,1
1630,1638,38,29,2064,-8,-3,4
1631,1639,44,38,2067,-5,-6,5
1632,1640,51,34,2060,-5,-5,3
1633,1641,39,36,2061,-4,0,3
1634,1642,34,41,2048,-6,1,2
1635,1643,35,38,2052,-7,0,0
1636,1644,37,35,2072,-4,-3,2
1637,1645,33,35,2055,-7,-7,1
1638,1645,36,39,2046,-11,-8,-2
1639,1646,34,27,2057,-12,-4,1
1640,1647,37,25,2061,-5,-5,4
1641,1648,38,38,2055,-1,-6,6
1642,1649,33,35,2070,-3,-6,-2
1643,1650,38,39,2053,-6,-4,-1
1644,1651,31,44,2061,-3,-2,1
1645,1652,34,38,2048,-3,-3,2
1646,1653,33,32,2048,-5,-7,-1
1647,1654,28,36,2057,-5,-3,-4
1648,1655,31,43,2073,-6,-5,-1
1649,1656,32,44,2058,-6,-4,1
1650,1657,28,32,2065,-7,1,-3
1651,1658,30,33,2047,-11,0,-2
1652,1660,32,26,2058,-9,-1,0
1653,1661,31,28,2067,-8,-6,3
1654,1662,33,31,2046,-5,-4,6
1655,1663,44,24,2051,-4,-4,3
1656,1664,44,22,2046,-4,-7,0
1657,1665,45,26,2047,-6,-9,-3
1658,1666,40,35,2057,-5,-3,-1
1659,1667,34,35,2067,-4,-7,2
1660,1668,33,32,2062,-2,-10,2
1661,1669,37,32,2063,-3,-8,1
1662,1670,26,21,2039,-5,-4,-2
1663,1671,21,28,2057,-5,-3,0
1664,1672,32,39,2060,-6,-8,2
1665,1673,33,34,2061,-10,-15,0
1666,1673,26,29,2064,-8,-13,0
1667,1674,33,22,2062,-4,-6,1
1668,1675,30,27,2073,-4,-5,1
1669,1676,45,35,2050,-6,-5,-2
1670,1677,37,25,2044,-10,-5,-1
1671,1678,36,34,2051,-7,-6,-1
1672,1679,44,31,2049,-5,-4,3
1673,1680,43,30,2057,-3,-7,1
1674,1681,43,28,2053,-2,-11,2
1675,1682,42,23,2058,-9,-11,4
1676,1683,40,33,2073,-10,-4,3
1677,1684,44,26,2057,-6,-9,0
1678,1685,43,30,2065,-7,-10,0
1679,1686,48,33,2044,-4,-7,3
1680,1687,45,37,2064,-3,-7,3
1681,1688,54,35,2077,-1,-8,4
1682,1689,35,17,2049,-5,-9,4
1683,1690,35,29,2064,-6,-11,-2
1684,1691,37,24,2052,-6,-11,1
1685,1692,31,28,2042,-6,-10,4
1686,1693,38,37,2052,-7,-8,1
1687,1694,50,41,2066,-4,-8,-2
1688,1695,35,36,2078,-2,-10,-2
1689,1696,45,26,2073,-2,-6,-4
1690,1697,41,34,2081,-5,-7,-5
1691,1698,45,46,2045,-2,-12,1
1692,1699,44,39,2048,-2,-18,-1
1693,1700,48,26,2062,-9,-12,-3
1694,1702,47,20,2063,-6,-9,-2
1695,1703,39,28,2066,-6,-10,0
1696,1704,42,34,2060,-7,-12,-1
1697,1705,39,28,2050,-5,-13,0
1698,1706,30,28,2053,-6,-15,2
1699,1707,36,33,2054,-7,-12,4
1700,1708,57,26,2055,-5,-8,3
1701,1709,40,29,2057,-3,-7,1
1702,1710,43,37,2065,-2,-4,-1
1703,1711,40,36,2060,-3,-10,-3
1704,1712,45,31,2044,-5,-15,1
1705,1713,48,31,2043,-4,-16,2
1706,1714,44,32,2045,-2,-13,1
1707,1715,47,37,2053,-7,-11,-3
1708,1715,54,32,2047,-6,-10,-2
1709,1716,42,29,2050,-3,-12,3
1710,1717,40,34,2058,0,-9,2
1711,1718,40,37,2084,-2,-9,0
1712,1719,43,29,2062,-2,-6,1
1713,1720,45,24,2059,-6,-9,3
1714,1721,48,13,2059,-5,-14,6
1715,1722,54,17,2080,-8,-11,3
1716,1723,51,30,2060,-5,-7,0
1717,1724,60,37,2059,-3,-5,0
1718,1725,47,31,2045,-4,-10,-1
1719,1726,39,23,2048,-4,-12,2
1720,1727,48,27,2041,-5,-13,2
1721,1728,46,26,2057,-4,-10,0
1722,1729,48,33,2069,-3,-14,2
1723,1730,46,44,2049,-3,-14,2
1724,1731,52,30,2034,-4,-10,-3
1725,1732,50,18,2051,-2,-10,1
1726,1733,41,24,2075,-5,-10,4
1727,1734,55,33,2059,-4,-12,3
1728,1735,56,21,2066,-4,-7,4
1729,1736,61,30,2078,-7,-7,-3
1730,1737,56,23,2072,-7,-11,-4
1731,1738,48,23,2067,-4,-11,-1
1732,1739,41,29,2054,-3,-14,0
1733,1740,38,33,2055,-4,-13,3
1734,1741,38,30,2062,-4,-10,2
1735,1742,53,25,2059,-7,-6,-1
1736,1743,39,27,2067,-10,-12,-1
1737,1744,45,24,2069,-8,-15,1
1738,1745,45,11,2060,-4,-14,7
1739,1746,53,13,2061,-2,-9,4
1740,1747,44,26,2066,-3,-1,-1
1741,1748,44,29,2058,-5,-1,-2
1742,1749,49,26,2070,-2,-10,1
1743,1750,39,31,2074,-1,-11,0
1744,1751,43,21,2073,-4,-6,3
1745,1752,51,23,2070,-3,-6,4
1746,1753,58,39,2066,-2,-12,2
1747,1754,57,18,2074,-1,-11,-1
1748,1755,59,28,2083,-1,-4,-3
1749,1756,55,25,2064,0,-6,0
1750,1757,49,18,2051,-1,-11,7
1751,1758,44,15,2063,-2,-14,4
1752,1759,47,15,2067,-3,-11,-4
1753,1760,53,29,2058,-1,-4,-4
1754,1761,57,32,2053,-2,-4,3
1755,1762,40,31,2065,-1,-9,3
1756,1763,41,27,2052,-3,-11,-1
1757,1764,49,33,2050,-3,-8,-3
1758,1765,46,29,2037,2,-7,-1
1759,1766,56,25,2074,-1,-12,0
1760,1767,53,18,2070,-10,-12,-3
1761,1768,54,26,2056,-5,-12,0
1762,1769,48,23,2067,-4,-13,3
1763,1770,35,32,2060,-2,-14,2
1764,1772,30,29,2055,2,-10,3
1765,1773,56,25,2054,1,-4,5
1766,1774,65,29,2050,1,-5,2
1767,1775,64,19,2069,0,-8,1
1768,1776,51,27,2065,-4,-8,1
1769,1777,42,36,2054,0,-8,1
1770,1778,41,34,2053,0,-9,1
1771,1779,44,32,2057,3,-16,-2
1772,1780,56,31,2054,4,-14,-5
1773,1781,60,32,2061,-3,-10,-1
1774,1782,57,32,2043,-2,-9,3
1775,1783,42,32,2047,0,-11,1
1776,1784,46,34,2064,2,-14,3
1777,1785,52,37,2065,3,-17,4
1778,1785,55,30,2068,4,-11,2
1779,1786,51,25,2059,1,-5,-1
1780,1787,53,24,2061,1,-5,0
1781,1788,51,27,2059,0,-10,-1
1782,1789,58,22,2058,-3,-12,1
1783,1790,51,23,2042,0,-10,3
1784,1791,56,31,2051,2,-9,2
1785,1792,49,34,2055,0,-7,6
1786,1793,56,32,2061,0,-7,7
1787,1794,59,31,2056,1,-9,6
1788,1795,58,29,2058,2,-13,2
1789,1796,53,29,2065,0,-15,1
1790,1797,65,34,2062,-1,-14,0
1791,1798,65,32,2053,-1,-5,-3
1792,1799,61,31,2065,4,-1,-2
1793,1800,57,34,2067,5,-4,1
1794,1801,56,27,2056,3,-6,1
1795,1802,56,40,2051,1,-9,0
1796,1803,53,43,2064,2,-7,0
1797,1804,52,31,2072,5,-1,5
1798,1805,60,30,2054,1,2,2
1799,1806,52,32,2051,-5,-5,-2
1800,1807,58,37,2052,1,-7,-2
1801,1808,59,30,2072,4,-6,-1
1802,1809,56,34,2057,3,-6,2
1803,1810,51,33,2064,4,-8,3
1804,1811,45,31,2059,1,-5,4
1805,1812,51,35,2056,2,-7,3
1806,1813,47,33,2069,7,-12,-1
1807,1814,44,28,2059,3,-11,0
1808,1815,46,30,2047,-1,-3,0
1809,1816,48,35,2052,-2,0,-5
1810,1817,49,40,2048,-2,-2,-4
1811,1818,54,41,2054,0,-8,1
1812,1819,60,33,2057,-1,-11,4
1813,1820,50,29,2061,-2,-8,6
1814,1821,56,24,2052,-1,-7,3
1815,1822,53,28,2040,1,-6,-4
1816,1823,54,33,2057,4,-4,-5
1817,1824,57,37,2054,6,-3,1
1818,1825,57,39,2060,2,-8,5
1819,1826,46,26,2072,1,-10,5
1820,1827,45,24,2067,-1,-4,1
1821,1828,59,28,2064,3,-1,0
1822,1829,58,20,2056,0,-1,2
1823,1830,53,25,2046,0,-8,5
1824,1831,46,18,2050,1,-9,4
1825,1832,53,28,2066,7,-1,4
1826,1833,55,17,2065,7,5,2
1827,1834,52,30,2074,5,1,-1
1828,1835,57,31,2069,4,-3,-2
1829,1836,51,31,2065,3,-5,-3
1830,1837,51,39,2052,6,-9,3
1831,1838,44,37,2054,3,-5,6
1832,1839,44,20,2065,1,2,3
1833,1840,47,18,2058,-1,2,0
1834,1841,52,25,2061,-2,-2,1
1835,1842,53,25,2057,1,-6,3
1836,1843,44,29,2072,5,-10,3
1837,1844,38,34,2069,4,-7,2
1838,1845,45,28,2072,6,-8,-1
1839,1846,47,25,2056,4,-7,-4
1840,1847,58,27,2066,4,-2,-3
1841,1848,62,43,2044,7,-2,1
1842,1849,61,32,2059,5,-3,1
1843,1850,53,36,2065,4,1,-2
1844,1851,52,23,2054,5,2,-1
1845,1852,53,28,2044,8,1,1
1846,1853,51,21,2042,7,-4,1
1847,1854,52,21,2049,6,-5,-1
1848,1855,41,30,2054,6,-6,1
1849,1856,44,35,2058,0,-3,3
1850,1857,48,22,2055,3,1,2
1851,1858,51,18,2063,5,0,-4
1852,1859,55,30,2066,5,-8,-3
1853,1860,50,35,2062,7,-10,0
1854,1861,54,26,2058,5,-3,0
1855,1862,51,39,2076,2,1,3
1856,1863,55,19,2058,3,2,1
1857,1864,55,30,2062,4,1,3
1858,1865,52,49,2064,5,-2,3
1859,1866,54,41,2065,5,-6,-2
1860,1867,54,30,2056,3,-3,-5
1861,1868,67,18,2043,5,1,-1
1862,1869,55,10,2064,6,0,1
1863,1870,52,21,2059,4,-1,-1
1864,1871,46,21,2057,4,2,-2
1865,1872,43,28,2062,4,4,-2
1866,1873,47,38,2059,3,2,-2
1867,1874,61,27,2054,5,0,2
1868,1875,56,26,2075,5,-2,-1
1869,1876,52,31,2064,10,2,-1
1870,1877,49,28,2050,9,3,-1
1871,1878,56,29,2056,6,3,1
1872,1879,58,30,2076,8,2,1
1873,1880,53,28,2074,3,0,-2
1874,1881,52,22,2066,5,1,-3
1875,1882,51,30,2072,7,4,-3
1876,1883,55,27,2069,7,5,-2
1877,1884,54,35,2061,8,2,-3
1878,1885,53,31,2060,3,3,-6
1879,1886,51,33,2053,3,2,-2
1880,1887,63,44,2047,6,0,2
1881,1888,72,35,2046,7,4,2
1882,1889,63,36,2064,7,5,-4
1883,1890,60,41,2044,10,8,-4
1884,1891,59,35,2053,6,4,-1
1885,1892,59,38,2059,6,3,-1
1886,1893,64,38,2064,6,6,-1
1887,1894,61,39,2054,6,3,-2
1888,1895,62,33,2056,3,2,-5
1889,1896,55,27,2056,5,4,-4
1890,1897,63,29,2042,9,6,-2
1891,1898,56,22,2048,7,11,-1
1892,1899,65,32,2057,7,8,-4
1893,1900,53,31,2061,5,0,-6
1894,1901,56,38,2055,7,1,-4
1895,1902,59,36,2059,7,5,0
1896,1903,53,38,2069,7,7,-2
1897,1904,57,45,2072,9,4,-6
1898,1905,52,48,2053,12,0,-6
1899,1906,44,42,2061,8,0,-5
1900,1907,59,37,2062,7,3,-4
1901,1908,54,31,2056,5,5,-2
1902,1909,52,26,2054,3,7,-4
1903,1910,59,36,2055,2,9,-4
1904,1911,60,40,2078,1,11,-1
1905,1912,64,34,2075,5,9,-2
1906,1913,64,25,2053,8,4,0
1907,1914,57,32,2066,6,2,-6
1908,1915,58,49,2066,6,2,-6
1909,1916,55,36,2069,2,7,-4
1910,1917,63,43,2072,4,11,-6
1911,1918,64,42,2059,5,7,-3
1912,1919,57,43,2037,7,6,-4
1913,1920,51,35,2052,8,8,-4
1914,1921,56,26,2049,8,7,-4
1915,1922,62,19,2052,8,6,0
1916,1923,57,24,2058,3,9,-2
1917,1924,62,38,2055,-1,9,-4
1918,1925,62,37,2067,4,12,-6
1919,1926,59,30,2068,8,11,-5
1920,1927,56,32,2077,9,8,-5
1921,1928,54,26,2051,9,5,0
1922,1929,54,27,2059,4,6,0
1923,1930,54,37,2074,2,9,-1
1924,1931,57,36,2074,4,7,2
1925,1932,62,42,2062,6,6,7
1926,1933,64,39,2050,5,10,7
1927,1934,44,27,2042,1,13,2
1928,1935,53,29,2064,0,12,1
1929,1936,64,29,2055,2,12,0
1930,1937,52,35,2065,4,9,-3
1931,1938,45,28,2057,7,9,-2
1932,1939,53,29,2055,7,11,3
1933,1940,50,32,2061,9,10,2
1934,1941,56,30,2057,6,9,1
1935,1942,58,32,2035,9,12,-2
1936,1943,45,28,2062,8,18,-1
1937,1944,50,31,2060,11,17,-2
1938,1945,55,33,2062,6,10,-3
1939,1946,59,22,2064,6,11,-3
1940,1947,58,21,2068,6,11,-4
1941,1948,52,20,2062,6,9,-3
1942,1949,50,32,2065,3,7,-2
1943,1950,48,41,2066,4,8,0
1944,1951,44,37,2063,5,12,3
1945,1952,45,45,2052,1,15,3
1946,1953,56,39,2054,1,14,1
1947,1954,40,29,2054,5,15,-1
1948,1955,42,20,2060,12,10,1
1949,1956,44,24,2064,12,9,2
1950,1957,52,33,2056,8,9,2
1951,1958,49,22,2075,8,13,-3
1952,1959,45,43,2074,9,14,-9
1953,1960,44,38,2054,7,9,-3
1954,1961,59,26,2039,6,11,3
1955,1962,45,36,2071,6,12,2
1956,1963,45,48,2071,7,12,2
1957,1964,42,35,2065,6,12,-1
1958,1965,33,25,2054,5,13,-3
1959,1966,56,33,2057,2,20,-4
1960,1967,60,41,2066,3,13,0
1961,1968,57,39,2063,5,11,-1
1962,1969,54,31,2050,8,13,-1
1963,1970,46,31,2057,6,14,2
1964,1971,45,35,2046,6,13,0
1965,1972,45,43,2061,6,14,-7
1966,1973,52,22,2063,5,12,-5
1967,1974,54,27,2069,3,10,-1
1968,1975,45,31,2074,5,5,4
1969,1976,59,31,2076,0,9,4
1970,1977,54,46,2067,-2,15,1
1971,1978,45,29,2057,0,13,-1
1972,1979,47,47,2055,2,14,-1
1973,1980,41,41,2051,4,16,2
1974,1981,52,35,2044,3,18,0
1975,1982,55,27,2027,6,17,-2
1976,1983,59,35,2045,7,16,-4
1977,1984,59,49,2052,5,18,-4
1978,1985,43,41,2058,3,15,-3
1979,1986,40,44,2053,2,13,1
1980,1987,41,45,2067,3,16,2
1981,1988,40,50,2067,3,13,-1
1982,1989,47,51,2053,0,9,0
1983,1990,50,42,2055,0,11,-3
1984,1991,51,35,2055,2,13,-3
1985,1992,51,36,2065,3,16,-2
1986,1993,45,30,2055,5,13,-3
1987,1994,42,34,2050,3,9,3
1988,1995,50,52,2056,4,4,6
1989,1996,54,40,2044,6,7,1
1990,1997,42,41,2062,8,16,-2
1991,1998,48,34,2063,6,16,-2
1992,1999,47,30,2059,4,12,-3
1993,2000,49,38,2072,6,8,-3
1994,2001,47,46,2054,6,8,1
1995,2002,38,61,2053,0,10,5
1996,2003,45,45,2046,1,12,3
1997,2004,46,38,2061,-2,15,0
1998,2005,51,36,2048,0,16,-3
1999,2006,48,53,2058,2,16,-1
2000,2007,45,47,2059,1,13,3
2001,2008,53,37,2055,1,16,5
2002,2009,49,28,2064,3,19,-2
2003,2010,37,35,2060,5,11,-3
2004,2011,45,33,2051,2,8,-4
2005,2012,48,31,2070,-1,11,-4
2006,2013,44,36,2064,4,15,-2
2007,2014,27,34,2052,3,16,-1
2008,2015,45,42,2063,3,19,-1
2009,2016,52,39,2055,2,17,0
2010,2017,57,39,2053,-2,14,1
2011,2018,48,40,2062,-5,13,-3
2012,2019,41,32,2065,1,13,-6
2013,2020,54,43,2054,3,13,-2
2014,2021,46,43,2059,3,11,1
2015,2022,39,44,2055,0,11,3
2016,2023,34,44,2049,-1,13,-4
2017,2024,50,38,2051,2,11,-4
2018,2025,44,43,2074,6,11,2
2019,2026,33,40,2069,5,9,0
2020,2027,51,30,2054,2,11,-3
2021,2028,55,32,2053,3,13,-2
2022,2029,45,41,2048,2,14,-3
2023,2030,45,41,2052,4,9,-4
2024,2031,44,33,2066,6,7,1
2025,2032,36,33,2074,-4,9,4
2026,2033,27,34,2056,-7,11,-1
2027,2034,36,26,2067,1,12,-7
2028,2035,40,46,2054,2,16,-4
2029,2036,46,48,2045,-3,18,0
2030,2037,39,42,2051,-4,15,1
2031,2038,51,41,2065,-1,10,-4
2032,2039,41,47,2057,0,9,-2
2033,2040,40,46,2067,-5,15,1
2034,2041,43,34,2072,-1,14,3
2035,2042,36,38,2074,1,14,5
2036,2043,39,56,2077,0,16,4
2037,2044,33,46,2079,-5,5,2
2038,2045,29,45,2071,-4,6,-1
2039,2046,32,32,2050,-3,15,-1
2040,2047,42,41,2056,-2,16,-1
2041,2048,32,42,2064,-2,16,-1
2042,2049,30,41,2055,0,14,-5
2043,2050,36,41,2066,-3,12,-2
2044,2051,28,42,2060,-2,15,1
2045,2052,30,39,2069,1,13,-1
2046,2053,40,43,2061,-1,11,1
2047,2054,44,31,2063,-6,10,1
2048,2055,47,35,2073,-2,8,0
2049,2056,40,44,2083,3,10,3
2050,2057,30,35,2060,-1,11,6
2051,2058,31,36,2080,0,8,1
2052,2059,40,36,2071,-3,9,-4
2053,2060,43,29,2058,-1,15,-3
2054,2061,36,38,2050,2,17,1
2055,2062,43,44,2067,-1,12,2
2056,2063,55,44,2062,-3,9,0
2057,2064,56,42,2055,-2,8,-2
2058,2065,42,35,2056,2,10,-4
2059,2066,38,34,2052,-2,11,-2
2060,2067,34,40,2042,-6,10,5
2061,2068,39,47,2041,-6,11,5
2062,2069,32,34,2063,-3,11,-1
2063,2070,44,26,2054,-7,10,0
2064,2071,39,37,2056,-3,14,-1
2065,2072,45,35,2049,1,11,1
2066,2073,46,31,2049,-1,8,0
2067,2074,47,37,2059,-2,4,-5
2068,2075,47,42,2048,-6,6,-4
2069,2076,37,41,2056,-3,8,1
2070,2077,44,33,2068,1,8,1
2071,2078,37,38,2058,-1,9,0
2072,2079,36,32,2064,-4,14,-3
2073,2080,46,32,2055,-1,7,-4
2074,2081,35,39,2045,3,5,-1
2075,2082,31,41,2049,1,7,1
2076,2083,40,50,2065,-1,6,3
2077,2084,30,36,2053,-1,8,2
2078,2085,28,27,2059,-3,12,1
2079,2086,39,37,2067,-7,11,1
2080,2087,43,37,2068,-7,4,1
2081,2088,38,44,2050,-8,5,-1
2082,2089,33,42,2055,-7,8,-1
2083,2090,30,45,2060,-6,11,-1
2084,2091,40,42,2070,-3,8,3
2085,2092,44,45,2059,-4,8,2
2086,2093,44,31,2056,-5,7,1
2087,2094,42,27,2067,-4,6,0
2088,2095,45,47,2065,-7,6,2
2089,2096,48,36,2067,-3,6,-2
2090,2097,41,39,2053,-2,6,-1
2091,2098,47,40,2058,-3,7,2
2092,2099,39,37,2056,1,6,2
2093,2100,34,36,2055,-1,8,1
2094,2101,50,40,2051,-5,5,1
2095,2102,38,36,2060,-8,6,0
2096,2103,37,37,2057,-3,5,0
2097,2104,35,41,2060,0,4,2
2098,2105,41,43,2059,0,3,2
2099,2106,46,44,2057,1,6,-1
2100,2107,41,38,2054,-4,3,-4
2101,2108,47,28,2062,-5,4,-2
2102,2109,40,39,2052,-5,4,1
2103,2110,37,45,2053,-5,7,2
2104,2111,36,47,2069,-5,12,0
2105,2112,48,37,2047,-5,11,-1
2106,2113,40,39,2058,-3,5,-3
2107,2114,45,41,2057,-3,1,-2
2108,2115,42,36,2035,-5,0,-1
2109,2116,28,36,2055,-8,0,-1
2110,2117,28,30,2055,-11,2,-1
2111,2118,29,40,2046,-5,5,0
2112,2119,36,33,2065,-4,4,1
2113,2120,34,37,2054,-3,4,-1
2114,2121,23,43,2054,-9,2,-1
2115,2122,33,48,2045,-9,1,0
2116,2123,41,39,2068,-7,-1,-4
2117,2124,40,32,2060,-7,0,-3
2118,2125,46,34,2058,-6,4,2
2119,2126,36,42,2057,-3,7,6
2120,2127,30,44,2065,-6,6,-3
2121,2128,44,28,2063,-7,2,-2
2122,2129,44,30,2044,-6,4,2
2123,2130,27,32,2054,-8,-1,6
2124,2131,25,34,2082,-6,1,3
2125,2132,30,39,2064,-8,6,-2
2126,2133,31,38,2062,-9,5,-4
2127,2134,37,50,2056,-6,1,-3
2128,2135,42,35,2048,-4,-4,0
2129,2136,43,31,2058,-2,-3,1
2130,2137,33,34,2060,-4,-1,2
2131,2138,37,29,2059,-2,1,-1
2132,2139,36,23,2066,-4,-1,-2
2133,2140,39,38,2047,-6,-4,-3
2134,2141,35,32,2043,-8,1,-4
2135,2142,41,19,2055,-9,2,-3
2136,2143,42,25,2067,-7,0,-1
2137,2144,45,25,2069,-7,-2,0
2138,2145,41,19,2046,-9,-4,-4
2139,2146,33,34,2056,-8,-3,-6
2140,2147,28,34,2052,-8,0,-4
2141,2148,27,28,2056,-9,0,1
2142,2149,22,39,2048,-8,-4,-2
2143,2150,35,35,2059,-5,-2,-4
2144,2151,47,37,2061,-3,-2,0
2145,2152,42,44,2055,-7,1,2
2146,2153,54,28,2077,-7,2,4
2147,2154,46,26,2055,-5,-2,3
2148,2155,37,27,2062,-1,2,2
2149,2156,34,31,2067,-1,-1,2
2150,2157,31,33,2060,-12,-4,-2
2151,2158,39,24,2058,-14,-3,-1
2152,2159,43,36,2072,-11,-4,-2
2153,2160,27,26,2054,-7,-3,-2
2154,2161,34,29,2063,-4,-2,0
2155,2162,27,29,2058,-7,-3,2
2156,2163,33,32,2060,-8,-5,1
2157,2164,33,32,2058,-7,-4,-1
2158,2165,37,38,2055,-4,-3,-2
2159,2166,39,33,2049,-4,-4,-1
2160,2167,35,32,2053,-5,-5,3
2161,2168,30,22,2069,-5,-5,3
2162,2169,26,20,2057,-5,-5,2
2163,2170,38,23,2048,-3,-2,0
2164,2171,29,30,2051,-3,-3,2
2165,2172,38,28,2057,-8,-4,6
2166,2173,44,33,2045,-4,-6,2
2167,2174,43,23,2055,-7,-3,3
2168,2175,35,32,2062,-7,-4,2
2169,2176,34,55,2062,-2,-5,3
2170,2177,46,37,2043,0,-4,2
2171,2178,47,28,2055,-3,-4,-1
2172,2179,45,25,2053,-5,-10,1
2173,2180,34,21,2059,-5,-9,4
2174,2181,36,29,2059,-5,-2,1
2175,2182,42,41,2074,-6,-8,-2
2176,2183,39,35,2072,-6,-12,-4
2177,2184,37,31,2060,-5,-8,0
2178,2185,33,29,2045,-8,-7,-1
2179,2186,45,33,2055,-7,-6,2
2180,2187,43,29,2048,-3,-5,6
2181,2188,40,20,2056,-4,-7,8
2182,2189,41,20,2036,-4,-5,7
2183,2190,28,25,2033,-4,-9,3
2184,2191,28,30,2066,-9,-10,-2
2185,2192,39,26,2075,-8,-5,-2
2186,2193,45,37,2057,-4,-6,-1
2187,2194,36,38,2057,-3,-11,2
2188,2195,33,21,2074,-3,-14,2
2189,2196,30,23,2072,-5,-12,1
2190,2197,34,29,2058,-5,-10,3
2191,2198,48,32,2067,-5,-6,1
2192,2199,49,35,2065,-6,-10,-1
2193,2200,38,36,2065,-4,-8,-1
2194,2201,50,37,2060,0,-2,3
2195,2202,53,30,2044,2,-5,1
2196,2203,60,23,2063,0,-9,-1
2197,2204,55,27,2068,-7,-6,-1
2198,2205,40,29,2068,-4,-5,1
2199,2206,33,37,2064,2,-8,0
2200,2207,31,27,2063,2,-9,1
2201,2208,45,38,2074,0,-3,2
2202,2209,51,32,2079,-10,-4,-5
2203,2210,39,20,2065,-9,-9,-2
2204,2211,37,18,2074,-10,-10,1
2205,2212,39,22,2086,-5,-11,0
2206,2213,51,29,2080,-3,-8,-1
2207,2214,50,33,2062,-7,-4,1
2208,2215,44,33,2043,-6,-6,3
2209,2216,37,37,2047,-6,-8,2
2210,2217,43,28,2061,-7,-9,3
2211,2218,49,31,2065,-4,-11,5
2212,2219,46,35,2080,-2,-13,3
2213,2220,45,31,2065,0,-9,1
2214,2221,43,37,2059,-1,-8,0
2215,2222,36,29,2045,-2,-5,-3
2216,2223,44,34,2043,-2,-3,1
2217,2224,43,25,2048,-3,-7,1
2218,2225,42,19,2061,-2,-9,-4
2219,2226,51,32,2063,-7,-14,-2
2220,2227,36,31,2055,-5,-9,2
2221,2228,37,27,2060,-5,-8,-1
2222,2229,40,36,2060,-7,-7,-2
2223,2230,42,32,2059,-4,-5,0
2224,2231,41,36,2046,-2,-6,-1
2225,2232,46,26,2071,-3,-8,-3
2226,2233,39,28,2064,-4,-11,-4
2227,2234,48,23,2069,-4,-16,-1
2228,2235,44,32,2062,-7,-10,2
2229,2236,40,31,2070,-5,-5,4
2230,2237,35,29,2062,-3,-3,0
2231,2238,33,26,2064,-4,-11,0
2232,2239,50,31,2047,-4,-11,-4
2233,2240,47,32,2063,-4,-6,-3
2234,2241,48,19,2057,-5,-6,-1
2235,2242,42,20,2056,-7,-8,2
2236,2243,39,27,2058,-3,-6,3
2237,2244,58,23,2060,-2,-7,2
2238,2245,56,18,2055,-2,-8,2
2239,2246,42,23,2061,-2,-8,1
2240,2247,45,36,2054,-2,-13,0
2241,2248,57,29,2067,-1,-10,-1
2242,2249,53,30,2062,-1,-6,2
2243,2250,44,28,2065,-2,-6,1
2244,2251,35,33,2052,-2,-8,1
2245,2252,47,29,2047,2,-8,5
2246,2253,43,29,2068,-2,-8,3
2247,2254,40,31,2082,1,-14,0
2248,2255,53,13,2061,3,-14,-2
2249,2256,49,14,2060,4,-8,0
2250,2257,56,19,2058,1,-6,-2
2251,2258,55,33,2052,-2,-9,-5
2252,2259,36,32,2068,-2,-12,-2
2253,2260,45,35,2070,0,-11,2
2254,2261,37,25,2066,5,-11,0
2255,2262,37,26,2041,4,-14,0
2256,2263,52,23,2065,4,-16,-2
2257,2264,47,27,2080,2,-15,-3
2258,2265,48,25,2054,0,-8,-3
2259,2266,40,21,2061,0,-7,-3
2260,2267,45,20,2067,1,-9,3
2261,2268,53,33,2058,0,-13,2
2262,2269,59,40,2069,5,-8,-1
2263,2270,57,29,2055,8,-8,-3
2264,2271,49,29,2057,7,-10,-1
2265,2272,48,27,2067,2,-8,0
2266,2273,50,31,2067,2,-9,2
2267,2274,47,33,2059,2,-13,1
2268,2275,45,29,2070,2,-12,1
2269,2276,44,18,2061,2,-7,0
2270,2277,54,15,2055,3,-7,1
2271,2278,40,21,2070,4,-6,0
2272,2279,43,22,2073,1,-13,0
2273,2280,32,21,2062,2,-15,0
2274,2281,40,27,2050,2,-11,4
2275,2282,52,37,2062,3,-9,0
2276,2283,57,37,2069,2,-9,-2
2277,2284,49,35,2066,7,-12,-2
2278,2285,47,38,2032,5,-13,0
2279,2286,44,39,2050,2,-11,5
2280,2287,49,31,2062,0,-8,6
2281,2288,53,34,2057,0,-9,6
2282,2289,53,27,2049,2,-14,-1
2283,2290,61,18,2060,6,-16,-1
2284,2291,54,31,2058,12,-13,0
2285,2292,53,32,2065,10,-5,-1
2286,2293,50,30,2053,4,-4,1
2287,2294,59,36,2073,1,-7,3
2288,2295,50,31,2056,2,-7,3
2289,2296,47,37,2048,3,-9,0
2290,2297,63,29,2041,3,-14,0
2291,2298,58,33,2055,2,-9,-1
2292,2299,46,29,2053,3,-5,0
2293,2300,48,37,2054,1,0,-2
2294,2301,58,30,2053,3,1,-3
2295,2302,52,42,2043,3,-5,0
2296,2303,59,41,2055,0,-11,2
2297,2304,53,33,2070,-4,-12,3
2298,2305,43,31,2075,-5,-11,4
2299,2306,51,22,2058,1,-12,2
2300,2307,47,38,2043,4,-14,1
2301,2308,44,34,2057,2,-12,-1
2302,2309,51,27,2056,-1,-13,3
2303,2310,66,27,2057,2,-15,2
2304,2311,54,29,2063,6,-16,0
2305,2312,52,25,2047,8,-12,3
2306,2313,61,32,2059,6,-8,4
2307,2314,58,28,2061,3,-7,-1
2308,2315,57,37,2068,2,-12,-7
2309,2316,60,27,2066,3,-11,-5
2310,2317,52,21,2065,6,-6,-1
2311,2318,59,33,2070,1,-4,-1
2312,2319,46,46,2060,2,-5,-4
2313,2320,54,35,2062,5,-6,-2
2314,2321,53,38,2058,1,-2,1
2315,2322,56,16,2065,-2,-2,4
2316,2323,44,40,2059,-1,-5,1
2317,2324,40,35,2050,-1,-7,-3
2318,2325,52,33,2063,2,-7,-2
2319,2326,57,24,2054,4,-8,2
2320,2327,50,18,2054,5,-7,0
2321,2328,48,35,2059,3,-10,-1
2322,2329,44,35,2055,-2,-11,-3
2323,2330,49,30,2050,3,-9,-6
2324,2331,57,33,2055,10,-12,-3
2325,2332,49,29,2061,10,-11,1
2326,2333,55,26,2049,2,-4,1
2327,2334,53,29,2079,3,-1,0
2328,2335,54,29,2073,5,-3,-2
2329,2336,51,25,2061,3,-4,-3
2330,2337,59,24,2050,0,-4,-4
2331,2338,55,35,2071,-2,0,0
2332,2339,50,31,2043,3,-2,1
2333,2340,40,31,2056,3,-5,-1
2334,2341,52,29,2052,2,-5,-3
2335,2342,61,31,2062,5,-6,-3
2336,2343,57,30,2075,5,-6,-3
2337,2344,49,29,2055,8,-8,-1
2338,2345,42,39,2050,7,-4,4
2339,2346,52,32,2062,2,-2,2
2340,2347,52,26,2060,8,1,2
2341,2348,51,39,2063,6,-1,2
2342,2349,47,29,2056,3,-4,-2
2343,2350,42,33,2059,4,-5,-2
2344,2351,47,30,2058,3,-6,-2
2345,2352,55,19,2054,4,-6,0
2346,2353,58,19,2071,5,-12,0
2347,2354,47,28,2056,5,-4,-2
2348,2355,46,32,2065,8,1,-3
2349,2356,56,34,2062,8,-4,0
2350,2357,65,34,2058,7,-4,-1
2351,2358,51,36,2050,8,-4,-5
2352,2359,58,26,2070,10,-5,-4
2353,2360,54,32,2065,6,-2,-2
2354,2361,55,33,2077,9,3,0
2355,2362,45,30,2076,13,3,1
2356,2363,47,22,2064,5,-1,0
2357,2364,40,27,2051,3,-4,-3
2358,2365,61,36,2073,1,-4,-1
2359,2366,63,36,2059,3,-4,-4
2360,2367,60,28,2073,4,-4,-5
2361,2368,49,25,2067,4,1,0
2362,2369,61,31,2063,1,2,0
2363,2370,68,41,2060,3,-1,-3
2364,2371,58,33,2064,8,-2,-1
2365,2372,57,26,2063,9,-6,0
2366,2373,49,33,2067,7,-2,3
2367,2374,50,23,2086,4,4,-3
2368,2375,53,27,2074,3,6,-6
2369,2376,55,22,2056,7,2,-4
2370,2377,55,28,2055,8,0,-1
2371,2378,48,35,2060,5,-1,-2
2372,2379,62,30,2052,2,-2,-4
2373,2380,52,30,2050,8,3,-4
2374,2381,51,22,2041,7,0,-1
2375,2382,50,35,2056,4,-3,-3
2376,2383,60,26,2052,3,-2,-5
2377,2384,68,41,2058,7,-2,-5
2378,2385,57,37,2052,8,-5,-3
2379,2386,49,27,2046,11,1,-1
2380,2387,52,34,2051,10,3,-2
2381,2388,52,43,2057,7,3,0
2382,2389,62,42,2065,5,4,1
2383,2390,47,42,2070,7,-3,1
2384,2391,39,26,2045,7,-6,-1
2385,2392,49,23,2053,5,-3,-6
2386,2393,61,29,2045,8,2,-3
2387,2394,52,26,2053,10,2,-3
2388,2395,58,48,2046,9,4,-3
2389,2396,58,41,2048,5,2,2
2390,2397,54,35,2058,5,1,0
2391,2398,52,29,2048,8,-1,-1
2392,2399,52,35,2056,8,0,-2
2393,2400,64,41,2060,7,3,-2
2394,2401,61,45,2055,6,2,-1
2395,2402,52,38,2051,8,3,1
2396,2403,63,41,2054,4,9,2
2397,2404,57,45,2059,4,12,-3
2398,2405,63,36,2051,3,5,1
2399,2406,78,30,2050,8,1,2
2400,2407,54,35,2060,14,1,-2
2401,2408,53,40,2055,12,3,-1
2402,2409,47,39,2052,5,6,1
2403,2410,49,35,2049,5,4,-2
2404,2411,45,35,2075,6,4,-3
2405,2412,54,43,2058,6,4,-2
2406,2413,58,47,2055,9,2,-4
2407,2414,59,49,2062,10,3,0
2408,2414,65,50,2080,10,9,1
2409,2415,61,46,2056,5,10,-1
2410,2416,55,47,2054,0,8,1
2411,2417,62,32,2065,3,6,0
2412,2418,59,36,2078,10,5,1
2413,2419,50,33,2052,11,5,2
2414,2420,54,37,2038,13,4,0
2415,2421,58,35,2062,7,0,2
2416,2422,54,39,2069,-2,5,0
2417,2423,53,37,2062,0,14,-2
2418,2424,49,32,2059,3,11,-6
2419,2425,65,30,2075,8,6,-2
2420,2426,70,33,2048,9,4,-2
2421,2427,63,44,2061,5,6,-2
2422,2429,52,46,2048,2,8,-5
2423,2430,54,39,2049,5,10,-4
2424,2431,54,45,2064,8,7,-1
2425,2432,54,33,2069,7,5,3
2426,2433,54,35,2058,4,7,0
2427,2434,57,34,2066,1,6,-1
2428,2435,53,31,2076,5,8,-4
2429,2436,56,28,2071,8,7,-6
2430,2437,48,34,2049,9,9,-3
2431,2438,59,48,2047,6,10,0
2432,2439,57,45,2055,5,6,0
2433,2440,56,41,2053,9,8,-2
2434,2441,48,38,2054,8,5,1
2435,2442,52,45,2051,6,8,-3
2436,2443,50,50,2068,8,7,-5
2437,2444,39,47,2060,7,10,-4
2438,2445,50,32,2057,7,5,-4
2439,2446,51,44,2055,4,0,1
2440,2447,52,41,2071,1,0,2
2441,2448,48,41,2072,-1,5,0
2442,2449,43,40,2056,0,11,1
2443,2450,44,36,2060,4,11,-1
2444,2451,59,37,2051,2,12,3
2445,2452,54,38,2051,1,9,1
2446,2453,51,41,2063,0,2,-1
2447,2454,54,38,2061,2,0,2
2448,2455,55,24,2069,4,6,3
2449,2456,58,38,2064,7,10,1
2450,2456,52,28,2080,6,9,0
2451,2457,39,34,2057,8,5,1
2452,2458,35,37,2046,7,3,0
2453,2459,52,28,2040,4,1,2
2454,2460,45,36,2050,4,6,1
2455,2461,42,33,2046,6,4,1
2456,2462,43,32,2062,6,3,0
2457,2463,45,39,2068,2,7,-3
2458,2464,42,28,2069,4,14,-3
2459,2465,50,40,2051,6,11,-4
2460,2466,48,36,2038,4,2,-2
2461,2467,39,33,2057,2,-1,-1
2462,2468,46,47,2061,2,5,-2
2463,2469,53,45,2061,6,11,-3
2464,2471,46,17,2062,5,10,0
2465,2472,53,28,2061,5,9,0
2466,2473,49,44,2042,2,13,-1
2467,2474,51,48,2065,5,10,2
2468,2475,45,33,2056,6,7,1
2469,2476,46,52,2061,4,11,-1
2470,2477,50,42,2059,2,11,-2
2471,2478,49,40,2065,-2,5,-2
2472,2479,55,39,2054,2,12,-3
2473,2480,50,42,2063,3,13,-1
2474,2481,53,42,2049,4,11,2
2475,2482,51,44,2053,1,13,-1
2476,2483,54,34,2050,1,11,-1
2477,2484,46,44,2058,2,9,0
2478,2485,41,39,2066,-1,8,0
2479,2486,56,45,2062,-2,4,0
2480,2487,55,49,2045,4,5,-5
2481,2488,56,47,2054,0,8,-3
2482,2489,44,49,2070,-2,9,0
2483,2490,58,42,2065,1,8,0
2484,2491,52,48,2056,-3,12,3
2485,2492,40,47,2055,-3,8,4
2486,2493,36,45,2059,1,7,1
2487,2494,45,43,2062,4,8,-2
2488,2495,38,49,2065,4,8,-2
2489,2496,41,42,2054,1,9,0
2490,2497,39,37,2053,4,9,2
2491,2498,45,39,2042,5,10,3
2492,2498,52,45,2053,3,11,-3
2493,2499,49,40,2059,0,14,-4
2494,2500,52,39,2066,-2,12,-1
2495,2501,50,45,2068,-3,8,0
2496,2502,46,43,2071,-4,6,3
2497,2503,53,39,2057,-1,8,-4
2498,2504,60,44,2066,2,7,-7
2499,2505,54,34,2059,5,9,-6
2500,2506,56,40,2054,-1,8,2
2501,2507,58,43,2040,0,9,0
2502,2508,51,50,2059,0,11,-1
2503,2509,51,29,2065,-1,11,2
2504,2510,56,37,2057,-1,11,1
2505,2511,52,45,2054,-2,9,0
2506,2513,45,62,2063,0,11,-2
2507,2514,48,51,2060,0,11,-1
2508,2515,50,33,2048,1,13,1
2509,2516,39,30,2041,-1,11,5
2510,2517,36,38,2050,0,10,4
2511,2518,45,26,2066,-1,7,0
2512,2519,51,39,2058,-5,9,-5
2513,2520,54,35,2052,-6,10,-4
2514,2521,40,42,2051,-5,13,-3
2515,2522,36,40,2057,-2,12,0
2516,2523,48,47,2059,-2,12,-1
2517,2524,43,54,2054,-4,11,-2
2518,2525,35,44,2055,-3,11,-1
2519,2526,43,43,2052,-2,11,-2
2520,2527,45,46,2046,1,11,3
2521,2528,50,43,2051,-1,11,5
2522,2529,47,37,2067,-6,7,0
2523,2530,42,37,2085,-3,4,-2
2524,2531,43,32,2089,-6,3,-1
2525,2532,44,47,2074,-10,8,1
2526,2533,50,42,2059,-9,12,1
2527,2534,41,43,2067,-5,11,0
2528,2535,34,47,2062,-5,14,-2
2529,2536,45,37,2058,-5,15,-4
2530,2537,57,27,2058,-6,11,-2
2531,2538,48,31,2054,-3,9,1
2532,2539,42,29,2052,-4,8,1
2533,2540,32,41,2058,-7,6,6
2534,2541,24,41,2067,-9,10,3
2535,2542,29,42,2058,-4,10,-4
2536,2543,40,40,2065,-1,13,-4
2537,2544,50,45,2050,-5,9,-1
2538,2545,49,32,2055,-10,9,3
2539,2546,40,33,2050,-6,11,2
2540,2547,48,40,2052,0,12,2
2541,2548,45,42,2058,-3,11,4
2542,2549,30,31,2058,-7,5,3
2543,2550,35,24,2061,-7,2,1
2544,2551,39,38,2069,-4,12,-1
2545,2552,36,37,2063,-3,13,2
2546,2553,29,39,2072,-3,8,1
2547,2554,32,34,2070,-5,4,0
2548,2555,32,48,2061,-8,1,5
2549,2556,29,35,2054,-4,5,5
2550,2557,29,40,2055,-1,8,0
2551,2558,26,36,2047,-3,6,0
2552,2559,34,28,2059,-3,10,-1
2553,2560,33,34,2072,-5,11,-2
2554,2561,34,42,2064,-9,12,4
2555,2562,43,38,2078,-7,11,3
2556,2563,39,29,2052,-5,8,0
2557,2564,45,34,2068,-2,1,0
2558,2565,34,29,2076,-5,2,1
2559,2566,31,29,2062,-9,1,-1
2560,2567,34,34,2060,-9,4,-2
2561,2568,33,37,2059,-10,6,1
2562,2569,37,34,2056,-6,6,2
2563,2570,40,46,2068,-4,8,2
2564,2571,44,41,2063,-3,13,0
2565,2572,38,34,2077,-2,8,3
2566,2573,40,39,2077,-5,3,0
2567,2574,49,39,2053,-8,5,0
2568,2575,49,33,2047,-5,7,-4
2569,2576,45,44,2061,-2,8,-7
2570,2577,36,42,2054,-5,4,-7
2571,2578,36,36,2056,-5,2,-4
2572,2579,35,22,2051,-4,6,2
2573,2580,34,31,2069,-2,8,-2
2574,2581,41,29,2077,-3,12,-5
2575,2582,44,41,2071,-7,14,-3
2576,2583,38,44,2058,-6,6,-1
2577,2584,40,47,2046,-6,2,5
2578,2585,44,42,2058,-6,2,2
2579,2586,49,42,2056,-5,6,-1
2580,2587,41,30,2051,-9,5,-2
2581,2588,40,39,2059,-9,0,2
2582,2589,38,45,2070,-6,-3,2
2583,2590,44,43,2069,-4,-2,1
2584,2591,47,35,2054,-9,5,-1
2585,2592,46,35,2054,-10,6,1
2586,2593,47,34,2048,-8,8,2
2587,2594,48,40,2056,-5,0,-1
2588,2595,33,50,2058,-2,2,-4
2589,2596,42,43,2058,-3,1,-4
2590,2596,39,45,2060,-5,3,-4
2591,2597,43,40,2067,-8,4,-4
2592,2598,46,40,2090,-9,8,-2
2593,2599,44,31,2066,-10,7,-2
2594,2600,43,43,2053,-8,5,-1
2595,2601,35,29,2048,-11,8,-1
2596,2602,27,31,2063,-8,10,-1
2597,2603,30,27,2075,-4,3,-1
2598,2604,37,38,2057,-3,2,-2
2599,2605,47,31,2060,-6,5,1
2600,2606,35,37,2059,-12,4,2
2601,2607,34,44,2041,-10,2,1
2602,2608,32,35,2057,-3,-1,-3
2603,2609,36,44,2068,-5,1,-3
2604,2611,29,45,2060,-5,6,0
2605,2612,46,33,2045,-5,1,1
2606,2613,46,28,2055,-8,1,2
2607,2614,46,31,2077,-8,3,2
2608,2615,48,23,2069,-5,4,-2
2609,2616,49,38,2069,-7,-1,-4
2610,2617,45,39,2044,-9,0,-4
2611,2618,37,30,2060,-6,6,-1
2612,2619,33,27,2045,-2,4,2
2613,2620,32,48,2054,-5,0,4
2614,2621,34,47,2058,-8,3,5
2615,2622,32,43,2064,-11,1,4
2616,2623,30,48,2061,-11,-3,2
2617,2624,41,38,2059,-7,-1,2
2618,2624,45,46,2068,-7,-1,2
2619,2625,34,40,2074,-5,-4,5
2620,2626,24,31,2064,-5,-2,6
2621,2627,42,40,2063,-6,0,4
2622,2628,34,27,2070,-8,4,-2
2623,2629,49,34,2055,-11,7,-2
2624,2630,54,34,2056,-13,5,3
2625,2631,39,32,2052,-13,1,4
2626,2632,41,42,2063,-12,0,2
2627,2633,27,33,2053,-8,-1,0
2628,2634,34,32,2059,-5,2,2
2629,2635,33,33,2062,-5,1,2
2630,2636,30,28,2066,-8,-7,3
2631,2637,31,26,2056,-8,-6,2
2632,2638,43,12,2065,-9,0,1
2633,2639,45,33,2045,-6,2,0
2634,2640,46,41,2046,-5,0,-2
2635,2641,37,42,2048,-10,-3,-4
2636,2642,33,37,2070,-9,-5,-1
2637,2643,42,29,2061,-8,-5,2
2638,2644,37,27,2047,-5,0,4
2639,2645,45,34,2050,-9,2,4
2640,2646,39,29,2069,-7,-5,3
2641,2647,41,32,2059,-4,-4,0
2642,2648,42,30,2078,-5,-1,-1
2643,2649,34,31,2064,-6,-2,-3
2644,2650,48,36,2052,-5,-2,-1
2645,2651,41,36,2055,-6,-2,2
2646,2653,33,36,2060,-5,-1,3
2647,2654,29,26,2062,-9,-5,7
2648,2655,24,23,2059,-5,-3,5
2649,2656,29,39,2051,-8,-5,5
2650,2657,33,41,2067,-11,-8,1
2651,2658,31,42,2066,-10,-4,-1
2652,2659,43,44,2061,-6,-5,-2
2653,2660,41,38,2062,-7,-1,-2
2654,2661,23,31,2052,-3,-3,-2
2655,2662,43,30,2065,-2,-4,4
2656,2663,44,32,2064,-2,0,6
2657,2664,44,27,2069,-7,0,2
2658,2665,35,29,2048,-11,-4,-1
2659,2666,31,31,2052,-4,-7,1
2660,2666,42,29,2055,0,-3,6
2661,2667,26,30,2058,-3,0,3
2662,2668,36,34,2057,-6,-2,3
2663,2669,29,31,2048,-4,-3,3
2664,2670,29,38,2054,-5,-1,2
2665,2671,34,32,2074,-4,2,-4
2666,2672,41,35,2076,-5,1,0
2667,2673,25,36,2055,-7,-9,6
2668,2674,21,33,2060,-6,-11,6
2669,2675,33,31,2064,-7,-10,5
2670,2676,45,33,2058,-2,-6,-4
2671,2677,35,23,2051,0,-6,-6
2672,2678,40,22,2049,-3,-7,-2
2673,2679,46,26,2057,-4,-3,-1
2674,2680,39,23,2059,-3,-4,-1
2675,2681,33,30,2063,-4,-4,3
2676,2682,38,37,2065,-5,-1,3
2677,2683,40,36,2055,-5,-2,-1
2678,2684,38,41,2062,-4,-8,1
2679,2685,37,35,2052,-6,-10,-1
2680,2686,34,33,2059,-7,-9,-2
2681,2687,35,39,2073,-5,-10,-3
2682,2688,34,33,2064,-1,-5,0
2683,2689,36,30,2068,-3,-5,-1
2684,2690,41,29,2065,-2,-11,-1
2685,2691,37,37,2059,0,-13,1
2686,2692,36,40,2046,-6,-8,4
2687,2693,46,30,2055,-5,-5,7
2688,2695,37,15,2065,-3,-4,4
2689,2696,42,27,2049,-5,-9,0
2690,2697,36,33,2066,-7,-14,-2
2691,2698,43,29,2075,0,-10,1
2692,2699,49,24,2066,0,-10,3
2693,2700,36,26,2045,1,-7,4
2694,2701,39,21,2054,-2,-3,2
2695,2702,34,18,2062,-3,-11,3
2696,2703,45,29,2057,-1,-13,6
2697,2704,41,30,2069,-1,-9,1
2698,2705,36,23,2049,1,-3,-2
2699,2706,37,23,2051,0,-2,0
2700,2707,47,19,2054,-4,-7,0
2701,2708,52,32,2050,-8,-12,1
2702,2708,43,23,2052,-8,-11,4
2703,2709,49,28,2054,-1,-10,5
2704,2710,48,32,2058,-3,-13,0
2705,2711,45,22,2063,-5,-9,-3
2706,2712,36,37,2065,-2,0,0
2707,2713,41,28,2069,-1,1,1
2708,2714,30,27,2063,-5,-6,1
2709,2715,39,32,2045,-2,-8,-2
2710,2716,41,34,2054,2,-6,-4
2711,2717,47,30,2056,0,-9,-1
2712,2718,46,20,2063,-5,-6,1
2713,2719,50,25,2065,-7,-4,0
2714,2720,52,29,2063,-3,-3,2
2715,2721,27,24,2056,0,-9,4
2716,2722,38,24,2051,-3,-11,2
2717,2723,44,22,2070,-6,-10,4
2718,2724,42,35,2064,-4,-6,3
2719,2725,53,35,2058,0,-6,-1
2720,2726,59,37,2066,2,-12,-2
2721,2727,42,36,2055,-2,-9,-1
2722,2728,38,26,2071,-1,-4,-2
2723,2729,40,25,2071,0,-8,2
2724,2730,34,25,2066,1,-10,6
2725,2731,36,29,2060,-1,-9,1
2726,2732,53,32,2074,-2,-8,0
2727,2733,41,24,2064,-3,-6,-2
2728,2734,45,18,2061,5,-6,1
2729,2735,48,16,2048,5,-8,2
2730,2737,50,27,2047,2,-8,2
2731,2738,36,16,2053,1,-13,0
2732,2739,31,21,2052,-3,-14,-1
2733,2740,46,33,2046,-2,-12,4
2734,2741,53,32,2042,-2,-4,8
2735,2742,39,29,2048,3,-3,5
2736,2743,41,31,2064,1,-7,-1
2737,2744,54,31,2049,3,-10,-3
2738,2745,41,31,2063,1,-9,-3
2739,2746,49,20,2067,1,-5,4
2740,2747,51,21,2064,-1,-8,4
2741,2748,40,20,2063,0,-13,-1
2742,2749,46,17,2050,2,-12,-1
2743,2750,57,46,2052,2,-12,3
2744,2750,48,30,2058,-2,-10,3
2745,2751,39,24,2062,-1,-8,1
2746,2752,50,25,2070,-3,-6,2
2747,2753,47,29,2072,-2,-8,0
2748,2754,41,19,2058,-2,-7,0
2749,2755,25,15,2058,3,-5,2
2750,2756,40,20,2057,3,-5,-1
2751,2757,32,32,2055,2,-6,0
2752,2758,45,24,2061,4,-4,1
2753,2759,44,26,2077,7,-5,-1
2754,2760,50,23,2060,5,-5,1
2755,2761,34,21,2046,3,-13,1
2756,2762,36,23,2039,1,-16,4
2757,2763,47,20,2043,3,-15,6
2758,2764,49,21,2040,2,-11,1
2759,2765,49,22,2069,4,-8,0
2760,2766,48,25,2065,1,-3,-2
2761,2767,54,37,2050,2,-5,-2
2762,2768,54,37,2070,4,-14,0
2763,2769,56,41,2076,0,-18,-1
2764,2770,49,37,2072,0,-11,-3
2765,2771,54,29,2071,6,-6,0
2766,2772,50,18,2070,7,-8,3
2767,2773,45,25,2065,1,-10,1
2768,2774,46,30,2048,-2,-7,-1
2769,2775,56,33,2053,4,-4,-3
2770,2776,55,28,2070,10,-8,-1
2771,2777,58,27,2063,8,-12,-1
2772,2779,53,25,2052,4,-9,-3
2773,2780,42,24,2051,3,-9,-1
2774,2781,41,17,2071,3,-13,3
2775,2782,44,29,2067,3,-10,3
2776,2783,43,20,2056,2,-10,2
2777,2784,44,20,2062,3,-8,-1
2778,2785,57,26,2058,8,-10,-3
2779,2786,70,42,2050,9,-9,-1
2780,2787,59,32,2066,5,-8,1
2781,2788,60,29,2060,2,-6,-3
2782,2789,42,27,2070,6,-7,0
2783,2790,42,27,2070,7,-14,1
2784,2791,37,20,2055,1,-16,2
2785,2792,43,25,2043,1,-12,2
2786,2793,45,31,2054,2,-11,0
2787,2794,50,23,2066,3,-5,-2
2788,2795,56,25,2038,3,-5,3
2789,2796,57,35,2047,3,-9,1
2790,2797,61,38,2060,7,-10,0
2791,2798,49,35,2062,5,-9,0
2792,2799,46,28,2063,2,-8,2
2793,2800,51,25,2073,3,-10,2
2794,2801,49,30,2056,2,-9,3
2795,2802,40,23,2061,6,-5,2
2796,2803,56,25,2064,6,-3,-1
2797,2804,60,41,2061,4,-2,0
2798,2805,49,43,2066,8,-9,0
2799,2806,57,42,2074,6,-7,-1
2800,2806,62,34,2067,1,-7,-2
2801,2807,60,23,2063,5,-8,-4
2802,2808,47,19,2050,8,-6,-2
2803,2809,52,26,2058,8,-4,-3
2804,2810,63,34,2045,8,-8,-1
2805,2811,55,40,2067,4,-8,0
2806,2812,51,37,2052,1,-3,0
2807,2813,45,47,2057,5,-7,0
2808,2814,45,31,2060,6,-10,1
2809,2815,55,28,2087,8,-6,1
2810,2816,54,32,2057,8,-1,-2
2811,2817,64,22,2060,8,-4,-2
2812,2818,64,28,2056,6,-6,-1
2813,2819,50,35,2072,5,-8,-1
2814,2821,45,16,2068,5,-9,-3
2815,2822,54,21,2050,5,-2,-4
2816,2823,56,22,2029,1,0,1
2817,2824,54,23,2051,4,-4,0
2818,2825,56,38,2060,10,-6,-2
2819,2826,58,39,2054,11,-4,0
2820,2827,41,44,2058,8,-1,2
2821,2828,61,42,2063,6,-11,-3
2822,2829,45,31,2066,9,-11,-5
2823,2830,50,37,2056,5,-4,-2
2824,2831,52,28,2052,3,4,4
2825,2832,55,29,2056,8,-1,3
2826,2833,63,27,2046,9,-8,3
2827,2834,52,36,2027,7,-11,0
2828,2834,59,26,2045,9,-10,-3
2829,2835,57,25,2054,6,-5,-4
2830,2836,48,39,2052,6,-3,-3
2831,2837,44,39,2048,6,-3,-5
2832,2838,52,28,2045,3,-10,0
2833,2839,57,26,2061,3,-12,0
2834,2840,75,38,2068,5,-5,-3
2835,2841,70,32,2067,10,-1,-4
2836,2842,52,29,2060,13,-1,-5
2837,2843,43,31,2081,10,1,-4
2838,2844,41,23,2072,9,0,-4
2839,2845,57,17,2086,6,-1,3
2840,2846,49,37,2075,10,1,6
2841,2847,58,34,2077,11,-6,0
2842,2848,68,33,2074,8,-5,-8
2843,2849,50,38,2060,7,-3,-7
2844,2850,52,37,2056,7,-5,2
2845,2851,45,37,2058,6,-6,2
2846,2852,45,24,2051,7,-6,0
2847,2853,61,23,2060,7,-3,-2
2848,2854,54,28,2062,13,-1,1
2849,2855,50,46,2046,11,3,2
2850,2856,54,48,2052,8,2,0
2851,2857,50,37,2059,6,2,-3
2852,2858,60,25,2066,9,-2,-1
2853,2859,52,37,2076,13,-10,-3
2854,2860,47,33,2065,12,-9,-7
2855,2861,50,29,2071,8,-6,-4
2856,2863,53,33,2068,3,-2,-2
2857,2864,59,27,2060,5,2,-2
2858,2865,55,43,2052,8,-1,-1
2859,2866,50,32,2055,6,-5,-10
2860,2867,56,32,2040,3,-4,-9
2861,2868,59,29,2052,5,-1,-3
2862,2869,58,36,2063,10,5,2
2863,2870,44,42,2059,10,2,6
2864,2871,53,32,2054,7,-3,3
2865,2872,48,39,2051,6,0,-1
2866,2873,45,36,2059,4,2,-1
2867,2874,54,40,2062,2,-2,-1
2868,2875,56,49,2073,4,-5,-1
2869,2876,55,33,2062,7,-7,-2
2870,2876,52,45,2060,7,-4,0
2871,2877,45,46,2061,8,-3,1
2872,2878,58,40,2058,7,0,-1
2873,2879,53,38,2058,10,-1,-6
2874,2880,60,35,2072,11,-3,-8
2875,2881,57,35,2061,8,-2,-1
2876,2882,58,32,2066,5,3,1
2877,2883,50,22,2044,5,2,-4
2878,2884,66,35,2057,4,-2,-4
2879,2885,66,45,2061,9,3,-5
2880,2886,56,35,2062,10,5,-7
2881,2887,63,35,2052,10,7,-4
2882,2888,62,39,2055,11,3,-2
2883,2889,57,38,2055,11,-1,-4
2884,2892,58,39,2050,8,2,-3
2885,2893,52,35,2060,7,1,0
2886,2894,59,36,2050,9,-2,-3
2887,2895,59,25,2059,7,-3,-5
2888,2896,62,23,2054,9,1,-6
2889,2897,68,31,2060,8,-1,-3
2890,2898,67,27,2057,13,0,-3
2891,2899,59,32,2050,10,6,-2
2892,2900,57,29,2050,9,4,0
2893,2901,60,35,2059,6,2,2
2894,2902,52,39,2084,9,3,-2
2895,2903,53,40,2079,11,5,-4
2896,2904,45,46,2063,4,6,-4
2897,2905,57,49,2048,4,8,-3
2898,2905,51,45,2038,4,3,-4
2899,2906,51,25,2054,6,4,-3
2900,2907,46,34,2040,7,3,-2
2901,2908,47,33,2040,9,1,2
2902,2909,47,37,2058,7,0,-1
2903,2910,49,50,2069,7,-4,-4
2904,2911,58,38,2062,4,-3,-3
2905,2912,45,31,2080,4,-2,-1
2906,2913,50,27,2077,3,-1,1
2907,2914,51,27,2070,4,3,-2
2908,2915,52,34,2051,8,11,-4
2909,2916,59,37,2063,7,11,-5
2910,2917,59,43,2048,6,8,-1
2911,2918,58,32,2048,2,5,1
2912,2918,58,41,2040,7,-1,1
2913,2919,57,46,2039,13,-2,-2
2914,2920,57,41,2038,10,-1,-5
2915,2921,44,42,2034,5,2,-6
2916,2922,41,43,2056,2,8,-4
2917,2923,45,42,2067,4,6,-2
2918,2924,52,36,2073,7,3,2
2919,2925,61,33,2045,3,7,3
2920,2926,68,36,2065,3,11,-5
2921,2927,64,42,2081,3,9,-7
2922,2928,55,36,2081,2,6,-9
2923,2929,53,43,2073,5,4,-5
2924,2930,37,44,2068,5,1,0
2925,2931,35,44,2079,4,5,3
2926,2932,29,33,2055,6,12,4
2927,2933,40,30,2047,5,12,6
2928,2934,43,41,2037,1,7,2
2929,2935,51,53,2043,2,7,-4
2930,2936,62,52,2055,4,8,-5
2931,2937,52,40,2059,6,8,-2
2932,2938,62,36,2069,1,8,0
2933,2939,65,36,2051,-1,11,2
2934,2940,63,36,2061,-1,9,1
2935,2941,57,45,2076,4,7,-3
2936,2942,47,53,2069,6,4,-3
2937,2943,44,42,2085,4,4,-4
2938,2944,59,29,2075,1,7,-5
2939,2945,62,25,2069,2,9,-6
2940,2947,59,28,2040,3,9,-2
2941,2948,58,47,2050,3,9,2
2942,2949,45,31,2052,5,9,3
2943,2950,61,32,2055,6,9,0
2944,2951,59,38,2071,3,5,-1
2945,2952,46,39,2082,5,2,2
2946,2953,38,39,2058,6,6,-1
2947,2954,43,27,2071,5,8,-1
2948,2955,48,44,2064,6,4,1
2949,2956,52,44,2057,3,4,4
2950,2957,53,34,2059,1,5,1
2951,2958,55,31,2063,2,6,1
2952,2959,55,27,2061,0,8,-5
2953,2960,51,37,2069,-1,13,-10
2954,2960,52,35,2054,-1,11,-6
2955,2961,59,48,2059,-3,11,-2
2956,2962,52,37,2062,2,6,-4
2957,2963,59,32,2076,-1,3,1
2958,2964,44,32,2065,-1,7,2
2959,2965,54,30,2049,1,9,-1
2960,2966,51,23,2046,2,9,2
2961,2967,52,49,2056,2,11,3
2962,2968,33,44,2062,4,8,0
2963,2969,48,39,2052,5,4,2
2964,2970,46,33,2059,4,6,3
2965,2971,48,38,2055,3,10,0
2966,2972,50,47,2061,-2,10,2
2967,2973,44,50,2059,0,5,-5
2968,2974,45,39,2068,3,2,-4
2969,2975,44,29,2046,2,4,-2
2970,2976,45,20,2065,-4,9,-3
2971,2977,55,25,2050,-2,10,-5
2972,2978,56,28,2060,0,9,-3
2973,2979,49,34,2054,5,10,-2
2974,2980,59,43,2077,4,13,-1
2975,2981,69,35,2050,2,10,-1
2976,2982,50,41,2060,2,7,0
2977,2983,40,41,2067,2,1,0
2978,2984,42,38,2061,0,0,-2
2979,2985,49,41,2050,0,10,-1
2980,2986,48,51,2061,-3,13,0
2981,2987,40,51,2064,-5,8,0
2982,2989,51,50,2075,-3,7,0
2983,2990,47,48,2075,-4,14,-4
2984,2991,45,40,2063,-2,17,-2
2985,2992,47,41,2061,-1,9,-2
2986,2993,48,47,2043,1,6,2
2987,2994,42,37,2037,1,4,2
2988,2995,44,26,2043,0,2,-4
2989,2996,47,50,2045,2,4,-8
2990,2997,47,41,2042,2,4,-8
2991,2998,52,52,2046,1,3,-3
2992,2999,50,42,2052,-1,3,2
2993,3000,61,47,2058,1,5,1
2994,3001,57,50,2064,4,7,-1
2995,3002,53,43,2071,-1,8,0
2996,3002,47,36,2073,-2,10,3
2997,3003,44,36,2081,0,12,1
2998,3004,41,37,2053,0,10,-3
2999,3005,53,43,2073,-4,11,-2
3000,3006,45,43,2056,-2,9,2
3001,3007,43,50,2048,0,10,0
3002,3008,50,50,2041,-5,5,2
3003,3009,47,41,2046,-4,4,1
3004,3010,49,39,2027,-4,5,-2
3005,3011,34,40,2052,-2,12,-2
3006,3012,44,35,2058,-1,9,2
3007,3013,44,50,2075,-6,6,4
3008,3014,39,39,2075,-11,9,4
3009,3015,55,31,2075,-8,11,5
3010,3016,57,45,2072,-3,11,0
3011,3017,63,46,2066,-2,11,0
3012,3018,56,42,2069,-1,10,-1
3013,3019,51,35,2050,1,5,-3
3014,3020,44,35,2044,-1,3,2
3015,3021,49,31,2020,3,7,-2
3016,3022,49,39,2044,-1,11,-6
3017,3023,42,48,2050,-1,11,-7
3018,3024,37,40,2060,-3,10,-5
3019,3025,44,32,2054,-4,7,-5
3020,3026,49,41,2055,-7,7,-2
3021,3027,50,38,2055,-9,6,1
3022,3028,45,42,2046,-8,4,1
3023,3029,43,32,2057,-11,5,4
3024,3031,49,47,2053,-7,11,8
3025,3032,46,55,2062,1,13,6
3026,3033,45,45,2074,0,12,-1
3027,3034,36,49,2060,-2,11,-2
3028,3035,46,34,2053,-3,10,-5
3029,3036,48,39,2068,-4,9,-2
3030,3037,36,30,2062,-2,12,-1
3031,3038,32,34,2065,-6,11,-1
3032,3039,40,42,2064,-3,7,-1
3033,3040,50,30,2062,-3,8,-1
3034,3041,55,34,2039,-5,3,3
3035,3042,51,34,2042,-5,3,3
3036,3043,40,30,2048,-6,0,1
3037,3044,42,44,2066,-10,-3,1
3038,3044,35,47,2048,-5,4,2
3039,3045,41,41,2051,-2,7,3
3040,3046,38,40,2062,-5,9,6
3041,3047,40,37,2068,-6,9,7
3042,3048,43,42,2073,-9,10,4
3043,3049,46,45,2082,-6,9,0
3044,3050,37,39,2060,-4,3,-4
3045,3051,39,42,2063,-4,-1,-2
3046,3052,39,40,2039,-4,6,-1
3047,3053,37,32,2055,-7,7,0
3048,3054,32,36,2070,-10,9,0
3049,3055,39,22,2054,-11,4,-3
3050,3056,35,30,2060,-8,4,-4
3051,3057,38,40,2049,-5,11,-1
3052,3058,47,34,2048,-3,6,2
3053,3059,61,36,2052,-3,3,0
3054,3060,41,37,2063,-5,2,0
3055,3061,38,44,2060,-8,0,-2
3056,3062,40,33,2071,-6,3,1
3057,3063,40,43,2065,-10,4,2
3058,3064,51,36,2064,-11,6,4
3059,3065,50,27,2041,-9,9,1
3060,3066,32,40,2048,-11,11,1
3061,3067,42,24,2046,-13,8,2
3062,3068,39,30,2064,-10,2,4
3063,3069,34,28,2064,-5,4,5
3064,3070,34,36,2067,-2,3,3
3065,3071,34,48,2060,-6,3,1
3066,3073,38,38,2055,-6,4,-3
3067,3074,35,34,2049,-5,2,-1
3068,3075,32,41,2047,-5,1,2
3069,3076,35,38,2066,-6,4,0
3070,3077,38,47,2065,-7,3,-3
3071,3078,48,41,2061,-6,4,-1
3072,3079,50,38,2067,-5,1,3
3073,3080,43,34,2066,-9,1,3
3074,3081,41,23,2054,-8,6,2
3075,3082,43,37,2060,-7,5,2
3076,3083,39,41,2064,-5,4,-2
3077,3084,45,40,2058,-11,3,-2
3078,3085,50,38,2053,-12,0,1
3079,3086,46,40,2070,-8,3,-3
3080,3086,40,44,2074,-11,6,-1
3081,3087,37,40,2069,-10,7,1
3082,3088,45,36,2073,-6,4,0
3083,3089,43,37,2082,-3,-1,1
3084,3090,38,34,2055,-4,-2,1
3085,3091,44,40,2052,-7,3,-1
3086,3092,43,40,2047,-7,8,-1
3087,3093,41,33,2059,-6,9,0
3088,3094,46,35,2050,-4,5,2
3089,3095,36,33,2056,-4,-4,3
3090,3096,33,34,2070,-8,-3,-4
3091,3097,36,33,2069,-14,2,-4
3092,3098,44,37,2056,-15,-2,-4
3093,3099,47,44,2070,-12,2,0
3094,3100,41,40,2070,-12,4,2
3095,3101,39,45,2059,-7,3,2
3096,3102,52,42,2067,-5,-1,0
3097,3103,47,35,2076,-8,-1,1
3098,3104,39,32,2050,-10,1,1
3099,3105,53,30,2045,-9,2,1
3100,3106,46,36,2050,-12,3,-1
3101,3107,43,37,2043,-10,6,1
3102,3108,40,30,2049,-6,6,0
3103,3109,38,45,2060,-7,5,1
3104,3110,50,26,2062,-11,-2,2
3105,3111,45,21,2049,-11,-1,2
3106,3112,43,39,2044,-13,-2,4
3107,3113,56,42,2052,-13,-2,2
3108,3115,45,37,2049,-9,-1,-3
3109,3116,39,24,2048,-8,0,1
3110,3117,49,31,2062,-9,4,1
3111,3118,50,35,2054,-11,3,-5
3112,3119,46,35,2064,-9,0,0
3113,3120,46,41,2065,-10,-1,3
3114,3121,41,34,2068,-11,-3,4
3115,3122,39,33,2052,-11,5,1
3116,3123,37,33,2055,-12,6,-2
3117,3124,49,28,2063,-14,5,0
3118,3125,45,30,2067,-12,2,2
3119,3126,50,34,2054,-6,-1,6
3120,3127,45,46,2055,-10,2,6
3121,3128,47,36,2066,-9,2,0
3122,3128,44,26,2051,-8,1,-1
3123,3129,49,31,2046,-9,2,3
3124,3130,45,32,2039,-9,3,1
3125,3131,45,25,2049,-11,1,0
3126,3132,41,37,2053,-12,5,-2
3127,3133,42,39,2054,-14,6,-1
3128,3134,35,31,2057,-11,4,3
3129,3135,35,31,2063,-7,1,4
3130,3136,41,33,2047,-13,-1,-1
3131,3137,47,32,2046,-12,0,-5
3132,3138,46,30,2051,-7,2,2
3133,3139,46,34,2056,-10,4,3
3134,3140,40,47,2066,-13,7,1
3135,3141,35,34,2068,-18,2,2
3136,3142,51,33,2051,-15,-2,3
3137,3143,45,29,2052,-9,-7,3
3138,3144,43,24,2051,-7,-4,4
3139,3145,53,30,2061,-8,-1,6
3140,3146,37,29,2069,-7,1,5
3141,3147,39,26,2085,-8,-2,1
3142,3148,36,21,2074,-10,-2,1
3143,3149,48,28,2074,-7,4,2
3144,3150,46,23,2065,-3,3,1
3145,3151,41,32,2049,-5,-3,-2
3146,3152,51,46,2063,-12,-7,0
3147,3153,37,38,2055,-12,-3,-2
3148,3154,32,36,2051,-9,-1,-4
3149,3155,34,26,2058,-12,2,-1
3150,3157,46,28,2060,-11,1,0
3151,3158,33,23,2051,-9,-2,-1
3152,3159,41,27,2066,-6,-3,2
3153,3160,40,26,2052,-9,-2,2
3154,3161,41,30,2045,-9,-4,3
3155,3162,48,33,2039,-5,-3,-3
3156,3163,49,30,2055,-7,0,-1
3157,3164,45,27,2056,-13,1,0
3158,3165,27,30,2061,-10,0,4
3159,3166,37,29,2067,-4,-4,9
3160,3167,44,35,2078,-4,-5,0
3161,3168,43,29,2059,-6,-3,-5
3162,3169,51,20,2059,-11,-2,-3
3163,3170,45,26,2040,-12,-2,0
3164,3170,40,35,2029,-9,-1,2
3165,3171,31,28,2039,-2,-5,1
3166,3172,38,28,2050,-3,-6,-1
3167,3173,49,34,2055,-7,-5,0
3168,3174,34,39,2069,-9,-2,0
3169,3175,37,25,2077,-6,3,6
3170,3176,39,22,2051,-5,-2,9
3171,3177,30,34,2044,-10,-6,7
3172,3178,38,35,2061,-10,-9,4
3173,3179,42,40,2064,-6,-7,0
3174,3180,52,30,2057,-6,-5,0
3175,3181,45,22,2051,-4,-5,1
3176,3182,46,22,2050,-8,-2,4
3177,3183,49,37,2060,-7,0,5
3178,3184,48,37,2050,-7,-1,4
3179,3185,57,22,2044,-7,-6,2
3180,3186,57,20,2065,-8,-4,0
3181,3187,53,24,2075,-9,-2,2
3182,3188,56,24,2052,-9,-3,5
3183,3189,47,38,2050,-9,-2,3
3184,3190,48,32,2049,-8,-1,-2
3185,3191,42,34,2058,-3,0,-2
3186,3192,31,34,2067,2,3,-2
3187,3193,31,32,2062,-1,2,0
3188,3194,48,39,2061,-6,1,0
3189,3195,47,39,2060,-11,-5,0
3190,3196,47,37,2068,-9,-13,-1
3191,3197,46,32,2072,-6,-7,-2
3192,3199,44,26,2073,-6,1,1
3193,3200,39,21,2055,-2,3,6
3194,3201,40,29,2053,-2,1,4
3195,3202,39,36,2066,-4,-1,-1
3196,3203,39,33,2054,-1,0,0
3197,3204,54,26,2059,0,-3,2
3198,3205,44,37,2054,0,-4,2
3199,3206,52,29,2051,0,-3,3
3200,3207,46,22,2053,-1,-1,1
3201,3208,47,16,2072,-8,-2,2
3202,3209,53,22,2077,-7,-2,1
3203,3210,55,35,2069,-2,-1,-5
3204,3211,56,24,2054,-5,-2,-6
3205,3212,42,23,2045,-6,1,-2
3206,3212,43,28,2059,-1,-1,1
3207,3213,57,34,2063,-2,-2,-1
3208,3214,47,23,2052,-3,-4,-6
3209,3215,43,29,2050,0,-4,-2
3210,3216,43,38,2051,0,0,2
3211,3217,48,27,2060,-5,-1,2
3212,3218,54,30,2054,-4,-6,4
3213,3219,45,31,2060,-3,-8,3
3214,3220,40,34,2056,-5,-7,1
3215,3221,54,35,2060,-4,0,2
3216,3222,51,26,2060,-2,4,5
3217,3223,47,32,2072,-1,2,8
3218,3224,54,26,2069,2,-5,6
3219,3225,42,20,2065,-1,-5,3
3220,3226,47,30,2052,-3,-6,2
3221,3227,53,12,2049,-4,-4,0
3222,3228,32,21,2049,-2,-1,-3
3223,3229,40,22,2065,-1,-5,4
3224,3230,48,30,2057,-5,-3,4
3225,3231,44,30,2052,-8,1,5
3226,3232,54,29,2058,-7,-3,7
3227,3233,55,31,2068,-3,-2,5
3228,3234,42,24,2056,-1,-2,1
3229,3235,49,26,2070,-1,-5,-1
3230,3236,48,21,2055,2,-8,-3
3231,3237,40,20,2057,0,-3,-2
3232,3238,48,23,2071,1,2,3
3233,3239,47,30,2084,4,1,5
3234,3241,44,19,2059,-3,-2,8
3235,3242,40,17,2052,-5,-5,5
3236,3243,42,20,2070,-4,-7,3
3237,3244,43,27,2068,2,-9,2
3238,3245,36,16,2078,4,-6,1
3239,3246,26,27,2062,1,-8,0
3240,3247,34,16,2052,-2,-8,3
3241,3248,36,22,2060,-6,-2,1
3242,3249,41,30,2091,1,-1,2
3243,3250,48,35,2070,3,-1,5
3244,3251,39,31,2061,2,1,3
3245,3252,40,25,2063,3,-4,0
3246,3253,43,24,2087,5,-5,-1
3247,3254,38,18,2077,6,-3,6
3248,3254,41,10,2073,0,0,5
3249,3255,37,14,2031,2,-4,4
3250,3256,31,25,2041,0,-9,6
3251,3257,37,25,2037,-2,-7,5
3252,3258,49,40,2049,1,-3,0
3253,3259,47,33,2041,2,1,-4
3254,3260,48,26,2036,4,-2,-3
3255,3261,47,16,2052,0,-3,3
3256,3262,53,21,2067,3,-3,6
3257,3263,31,27,2065,1,-1,1
3258,3264,37,34,2065,0,-7,-4
3259,3265,46,32,2062,-2,-6,-2
3260,3266,33,22,2046,5,0,2
3261,3267,31,22,2062,4,2,3
3262,3268,37,20,2062,0,-3,2
3263,3269,41,24,2061,4,-7,-4
3264,3270,53,38,2052,4,-4,0
3265,3271,45,30,2051,6,-2,4
3266,3272,43,25,2058,9,-1,5
3267,3273,46,35,2066,12,-6,1
3268,3274,50,22,2060,9,-11,1
3269,3275,47,18,2056,7,-7,2
3270,3276,44,29,2043,6,-2,0
3271,3277,50,33,2057,2,-2,-3
3272,3278,56,40,2056,1,-3,1
3273,3279,57,27,2068,5,-6,3
3274,3280,43,22,2070,5,-5,5
3275,3281,40,28,2041,3,-7,3
3276,3283,44,25,2051,2,-5,3
3277,3284,48,26,2059,2,-4,-4
3278,3285,56,29,2059,3,-3,-8
3279,3286,58,30,2052,3,-5,-4
3280,3287,54,19,2070,4,-4,-3
3281,3288,51,14,2070,5,1,-1
3282,3289,42,31,2064,9,-7,-1
3283,3290,42,20,2064,7,-5,0
3284,3291,37,26,2074,6,-6,-1
3285,3292,36,30,2076,3,-6,-1
3286,3293,47,28,2078,2,-10,-4
3287,3294,42,11,2064,5,-10,-4
3288,3295,45,18,2058,7,-5,-3
3289,3296,46,31,2063,12,2,-4
3290,3296,51,48,2067,9,8,2
3291,3297,41,42,2069,8,1,1
3292,3298,41,27,2068,10,-5,0
3293,3299,54,27,2033,9,-7,-2
3294,3300,45,30,2042,7,-4,-1
3295,3301,58,22,2060,9,-1,2
3296,3302,49,38,2065,10,-6,5
3297,3303,47,33,2074,8,-7,5
3298,3304,40,29,2086,6,-9,0
3299,3305,53,41,2080,4,-5,0
3300,3306,56,33,2074,3,-5,-2
3301,3307,55,29,2064,4,-4,-3
3302,3308,51,28,2056,2,-6,-7
3303,3309,55,29,2044,-2,-7,-10
3304,3310,41,30,2054,4,-5,-5
3305,3311,47,32,2044,8,-1,1
3306,3312,47,32,2062,6,-2,0
3307,3313,53,41,2060,6,-5,-5
3308,3314,51,30,2068,9,-6,-6
3309,3315,63,33,2069,8,-8,-4
3310,3316,57,26,2058,4,-11,-3
3311,3317,57,28,2058,0,-8,-3
3312,3318,34,32,2059,-1,-4,1
3313,3319,41,26,2064,4,-3,4
3314,3320,44,30,2056,10,-5,3
3315,3321,55,39,2074,9,-1,-3
3316,3322,65,43,2058,7,-1,-3
3317,3323,50,48,2045,9,0,-3
3318,3325,57,38,2057,8,-2,-7
3319,3326,54,35,2067,7,-5,-4
3320,3327,45,36,2053,10,-7,0
3321,3328,44,31,2044,6,-6,0
3322,3329,43,27,2048,0,-4,2
3323,3330,45,33,2049,4,1,2
3324,3331,58,44,2044,8,-5,-2
3325,3332,61,42,2061,7,-6,-6
3326,3333,55,27,2044,6,-4,-4
3327,3334,59,15,2046,4,-4,-2
3328,3335,53,7,2061,3,-4,-1
3329,3336,56,25,2086,7,-8,-1
3330,3337,44,23,2085,8,-8,2
3331,3338,39,36,2071,7,-4,2
3332,3338,49,44,2078,10,-1,-2
3333,3339,50,23,2051,10,-2,-5
3334,3340,55,35,2048,7,-2,-5
3335,3341,52,29,2037,4,1,-4
3336,3342,55,31,2059,6,-4,1
3337,3343,60,43,2056,10,1,4
3338,3344,53,33,2074,14,4,-1
3339,3345,50,31,2067,10,-1,-3
3340,3346,50,17,2057,10,-4,-4
3341,3347,45,24,2065,10,-3,-2
3342,3348,40,29,2055,7,2,2
3343,3349,56,25,2046,7,3,0
3344,3350,64,37,2065,11,-1,2
3345,3351,62,42,2053,11,-1,2
3346,3352,49,42,2064,7,0,-2
3347,3353,48,41,2060,7,-4,-4
3348,3354,49,16,2058,9,-7,-3
3349,3355,45,27,2054,13,-4,-5
3350,3356,57,27,2058,11,4,-4
3351,3357,55,28,2043,8,4,0
3352,3358,55,24,2050,8,-5,4
3353,3359,52,28,2050,9,-9,-2
3354,3360,51,30,2041,10,-7,-4
3355,3361,44,27,2048,10,-6,-2
3356,3362,45,29,2051,11,-4,-4
3357,3363,53,35,2062,7,2,-9
3358,3364,48,33,2057,10,6,-5
3359,3365,59,38,2062,10,6,-4
3360,3367,61,32,2054,9,-2,3
3361,3368,53,31,2070,9,-4,3
3362,3369,59,26,2069,12,-2,-1
3363,3370,59,28,2066,16,-2,-3
3364,3371,49,38,2059,12,-1,-3
3365,3372,43,40,2058,10,-3,-2
3366,3373,48,33,2059,5,-6,-1
3367,3374,50,25,2062,4,-1,1
3368,3375,51,23,2059,5,5,-2
3369,3376,58,44,2066,10,3,-1
3370,3377,59,36,2058,13,2,-2
3371,3378,46,29,2064,11,-1,-3
3372,3379,60,31,2051,11,-4,-3
3373,3380,48,38,2057,9,-7,0
3374,3380,49,40,2061,10,-2,2
3375,3381,62,24,2059,11,-3,-2
3376,3382,56,37,2061,10,1,-4
3377,3383,58,47,2057,9,2,-2
3378,3384,58,35,2060,5,0,0
3379,3385,45,33,2053,8,2,2
3380,3386,47,24,2058,11,0,-3
3381,3387,51,39,2056,9,-4,-4
3382,3388,58,40,2060,8,-6,-2
3383,3389,61,39,2062,7,0,-1
3384,3390,55,40,2065,7,5,0
3385,3391,63,41,2071,10,2,0
3386,3392,50,40,2074,6,-1,1
3387,3393,58,21,2059,8,-1,0
3388,3394,66,27,2061,7,2,0
3389,3395,63,35,2062,13,4,-1
3390,3396,45,29,2057,13,2,-4
3391,3397,49,33,2056,7,1,-3
3392,3398,51,42,2043,6,-3,0
3393,3399,63,34,2045,10,0,-4
3394,3400,60,36,2066,10,3,0
3395,3401,53,38,2067,6,5,-3
3396,3402,51,42,2063,1,3,-2
3397,3403,48,42,2053,3,-4,-2
3398,3404,59,35,2055,4,-8,-5
3399,3405,53,37,2055,2,-7,-3
3400,3406,63,31,2043,3,-2,-3
3401,3407,54,29,2055,7,-1,-2
3402,3409,42,39,2060,8,2,-1
3403,3410,46,32,2062,5,4,-5
3404,3411,55,33,2060,5,5,-5
3405,3412,62,32,2070,7,4,-1
3406,3413,67,41,2046,6,7,-3
3407,3414,55,39,2064,1,12,-6
3408,3415,54,34,2060,1,7,-7
3409,3416,54,41,2065,4,0,-1
3410,3417,54,35,2053,3,0,3
3411,3418,56,42,2059,3,5,2
3412,3419,43,45,2056,5,5,-5
3413,3420,50,46,2063,5,2,0
3414,3421,62,49,2060,5,3,1
3415,3422,62,48,2055,9,-4,-5
3416,3422,60,47,2051,7,-5,-6
3417,3423,49,45,2059,2,-4,-2
3418,3424,46,40,2052,0,7,-2
3419,3425,52,33,2057,3,9,-1
3420,3426,52,35,2057,7,8,3
3421,3427,54,37,2067,5,9,2
3422,3428,54,48,2055,2,7,1
3423,3429,45,49,2059,2,3,0
3424,3430,56,28,2051,4,1,0
3425,3431,51,33,2044,2,1,0
3426,3432,49,37,2059,-2,8,-3
3427,3433,52,43,2056,0,9,-4
3428,3434,37,35,2061,1,9,-2
3429,3435,50,36,2057,5,8,2
3430,3436,49,38,2055,2,4,-1
3431,3437,49,39,2070,0,3,1
3432,3438,51,38,2071,2,8,2
3433,3439,49,30,2062,3,6,-1
3434,3440,58,42,2056,8,2,2
3435,3441,47,37,2057,7,0,3
3436,3442,40,40,2052,6,5,2
3437,3443,32,44,2056,6,7,1
3438,3444,42,26,2056,4,4,2
3439,3445,48,39,2046,5,6,2
3440,3446,48,30,2058,5,9,-2
3441,3447,43,31,2056,3,10,-4
3442,3448,44,37,2069,2,5,-7
3443,3449,41,32,2056,4,1,-2
3444,3451,58,45,2043,4,4,-1
3445,3452,61,49,2060,6,3,-1
3446,3453,52,48,2051,5,5,-3
3447,3454,49,44,2051,8,11,-4
3448,3455,47,33,2037,3,11,-3
3449,3456,48,37,2069,0,4,0
3450,3457,46,39,2082,2,-3,-4
3451,3458,39,25,2063,3,0,-2
3452,3459,45,37,2051,4,2,2
3453,3460,40,42,2058,2,2,-3
3454,3461,49,41,2068,0,5,-5
3455,3462,52,41,2070,0,8,-1
3456,3463,44,35,2061,-1,6,-2
3457,3464,46,30,2067,4,4,-2
3458,3464,47,35,2063,2,5,-4
3459,3465,41,27,2053,2,2,-3
3460,3466,57,34,2044,5,5,-2
3461,3467,42,53,2080,3,5,0
3462,3468,51,37,2059,3,3,1
3463,3469,48,30,2070,4,3,-1
3464,3470,46,41,2059,1,4,-3
3465,3471,47,44,2059,0,5,-2
3466,3472,40,41,2039,0,4,-1
3467,3473,34,39,2053,0,2,-2
3468,3474,49,43,2052,-2,1,1
3469,3475,55,55,2056,0,5,3
3470,3476,50,50,2048,-1,7,1
3471,3477,42,42,2054,2,5,0
3472,3478,48,39,2060,-5,-2,5
3473,3479,51,49,2066,-3,-3,4
3474,3480,48,33,2066,0,3,2
3475,3481,51,46,2056,2,5,3
3476,3482,53,40,2069,4,6,1
3477,3483,37,43,2068,2,12,1
3478,3484,45,35,2063,-1,4,-2
3479,3485,52,50,2070,0,-5,0
3480,3486,50,48,2067,1,0,-1
3481,3487,51,40,2059,2,8,-3
3482,3488,54,35,2067,-1,5,-3
3483,3489,58,25,2051,-5,4,-2
3484,3490,56,27,2041,-1,5,2
3485,3491,45,44,2062,-3,-1,3
3486,3492,42,47,2065,1,-1,0
3487,3493,49,43,2047,0,4,-1
3488,3494,61,44,2052,-1,9,-6
3489,3495,45,43,2056,0,7,-5
3490,3496,52,41,2057,-3,4,-2
3491,3497,58,42,2072,-3,3,0
3492,3498,46,44,2070,1,6,3
3493,3499,54,39,2055,2,8,1
3494,3500,51,39,2061,0,5,-3
3495,3501,44,44,2067,-5,6,0
3496,3502,45,39,2068,-6,7,4
3497,3503,54,37,2065,-9,5,4
3498,3504,47,38,2059,-4,8,1
3499,3505,34,38,2062,0,5,0
3500,3506,41,40,2049,-2,3,-2
3501,3507,37,38,2068,0,4,-1
3502,3508,45,34,2056,0,6,0
3503,3509,52,48,2067,0,7,2
3504,3510,52,39,2054,-1,7,3
3505,3511,51,37,2055,-4,4,-3
3506,3512,48,32,2055,-5,7,-5
3507,3513,45,41,2077,-4,8,0
3508,3514,41,42,2070,-5,9,2
3509,3515,42,36,2045,-9,7,5
3510,3516,55,30,2036,-8,9,1
3511,3517,51,45,2064,-5,6,-2
3512,3518,43,37,2049,-1,1,-4
3513,3519,50,24,2052,2,4,0
3514,3520,48,31,2050,-1,3,-1
3515,3521,55,44,2057,-3,4,-1
3516,3522,48,41,2077,-6,4,-2
3517,3523,49,28,2081,-10,5,-3
3518,3524,50,51,2062,-10,7,1
3519,3525,51,40,2060,-7,7,2
3520,3526,47,43,2065,-3,9,0
3521,3527,43,43,2062,-2,7,-2
3522,3528,42,35,2090,-1,5,-1
3523,3529,44,35,2062,-3,8,1
3524,3530,41,35,2059,-7,8,-1
3525,3531,38,35,2053,-9,5,-1
3526,3532,49,31,2072,-6,6,1
3527,3533,45,39,2045,-1,5,0
3528,3533,52,46,2049,-1,6,-4
3529,3534,43,37,2050,-4,4,-1
3530,3535,42,45,2059,-7,1,-3
3531,3536,45,43,2055,-5,1,-2
3532,3537,46,40,2065,-3,5,-3
3533,3538,45,31,2063,-6,6,-2
3534,3539,41,32,2073,-7,9,-5
3535,3540,51,35,2065,-8,5,-5
3536,3541,42,54,2052,-3,2,-4
3537,3542,41,47,2061,-7,8,2
3538,3543,50,36,2066,-6,6,3
3539,3544,49,28,2070,-1,3,0
3540,3545,53,33,2075,-1,4,-1
3541,3546,40,38,2057,-8,6,0
3542,3548,34,36,2057,-10,5,-1
3543,3549,38,47,2059,-8,7,-3
3544,3550,46,42,2058,-5,7,-1
3545,3551,39,27,2069,-2,4,-2
3546,3552,36,37,2069,-6,5,-2
3547,3553,37,34,2070,-6,7,-1
3548,3554,45,30,2050,-5,5,1
3549,3555,53,31,2052,-3,-1,-1
3550,3556,50,42,2050,-6,-1,-4
3551,3557,52,46,2085,-9,3,-2
3552,3558,39,44,2072,-5,5,6
3553,3559,33,34,2061,-5,5,4
3554,3560,35,41,2049,-7,0,3
3555,3561,47,46,2059,-5,1,2
3556,3562,35,40,2063,-5,2,1
3557,3563,56,39,2061,-8,3,-1
3558,3564,55,38,2058,-8,6,-2
3559,3565,56,28,2056,-8,7,1
3560,3566,37,35,2065,-7,6,4
3561,3567,42,49,2068,-6,0,5
3562,3568,43,44,2062,-8,-1,2
3563,3569,46,23,2068,-6,6,-2
3564,3570,27,20,2057,-10,10,-1
3565,3571,39,33,2056,-12,8,-1
3566,3572,47,47,2063,-3,2,-6
3567,3573,50,40,2063,-1,1,-7
3568,3574,53,28,2054,-4,4,-2
3569,3575,51,32,2055,-5,6,0
3570,3575,35,33,2062,0,2,2
3571,3576,37,32,2052,0,3,0
3572,3577,56,32,2061,-11,9,-5
3573,3578,47,40,2059,-11,7,-3
3574,3579,41,40,2060,-12,11,-1
3575,3580,36,34,2058,-12,5,2
3576,3581,45,44,2072,-9,2,4
3577,3582,58,37,2076,-4,0,-1
3578,3583,46,34,2063,-7,-2,-1
3579,3584,46,49,2055,-10,3,4
3580,3585,50,31,2057,-10,10,6
3581,3586,55,40,2044,-7,12,4
3582,3587,57,40,2041,-4,4,4
3583,3588,53,47,2054,-5,-1,2
3584,3590,47,42,2072,-9,1,-3
3585,3591,51,35,2051,-10,4,-4
3586,3592,47,19,2059,-14,4,-1
3587,3593,36,26,2066,-12,5,1
3588,3594,53,26,2059,-8,4,2
3589,3595,45,43,2034,-3,6,0
3590,3596,60,32,2047,-4,6,-1
3591,3597,56,32,2056,-8,1,0
3592,3598,46,43,2075,-9,-1,0
3593,3599,51,39,2067,-6,1,2
3594,3600,54,33,2076,-3,2,3
3595,3601,47,29,2075,-7,2,3
3596,3602,39,31,2070,-7,4,3
3597,3603,51,38,2062,-5,6,1
3598,3604,40,43,2048,-9,4,-1
3599,3605,49,55,2065,-10,5,-2
3600,3606,49,43,2055,-6,4,2
3601,3607,47,34,2059,-7,3,7
3602,3608,47,31,2053,-8,4,9
3603,3609,45,28,2050,-8,3,5
3604,3610,46,32,2057,-3,2,1
3605,3611,52,32,2050,-6,-4,1
3606,3612,48,31,2062,-14,-1,-1
3607,3613,50,28,2070,-13,5,2
3608,3614,53,20,2061,-11,4,-1
3609,3615,51,20,2055,-9,3,-3
3610,3616,40,31,2046,-13,3,-1
3611,3617,48,31,2060,-14,7,0
3612,3617,35,30,2065,-10,3,-1
3613,3618,41,22,2066,-11,-2,1
3614,3619,41,24,2043,-10,2,1
3615,3620,40,32,2048,-10,-1,0
3616,3621,51,42,2063,-10,-3,2
3617,3622,47,33,2058,-13,-1,-2
3618,3623,32,35,2057,-10,1,1
3619,3624,44,36,2044,-5,6,2
3620,3625,37,27,2057,-10,3,1
3621,3626,47,30,2054,-9,-3,-2
3622,3627,53,25,2061,-6,-1,-1
3623,3628,51,22,2045,-10,6,0
3624,3629,39,35,2051,-12,2,0
3625,3630,40,42,2055,-7,1,0
3626,3632,49,38,2060,-3,2,4
3627,3633,37,41,2037,-4,-1,3
3628,3634,48,43,2055,-4,-2,1
3629,3635,49,37,2066,-6,-1,1
3630,3636,49,33,2061,-11,6,3
3631,3637,46,39,2055,-10,6,4
3632,3638,43,36,2071,-9,5,2
3633,3639,27,34,2052,-6,1,4
3634,3640,38,23,2060,-6,1,3
3635,3641,37,30,2064,-9,4,-2
3636,3642,39,39,2077,-11,0,0
3637,3643,50,29,2062,-7,1,1
3638,3644,35,29,2065,-3,2,2
3639,3645,41,41,2072,-7,1,4
3640,3646,47,41,2064,-6,0,1
3641,3647,40,40,2054,-8,1,-1
3642,3648,36,36,2049,-8,3,0
3643,3649,44,19,2072,-8,5,4
3644,3650,40,29,2067,-8,-2,1
3645,3651,35,28,2049,-4,-5,-2
3646,3652,35,28,2063,-8,-5,-2
3647,3653,42,17,2067,-9,1,1
3648,3654,40,29,2052,-5,4,1
3649,3655,47,35,2070,-5,3,1
3650,3656,45,39,2056,-10,2,2
3651,3657,38,45,2050,-9,1,3
3652,3658,41,30,2057,-6,6,2
3653,3659,43,35,2061,-8,5,0
3654,3660,35,47,2054,-9,3,-1
3655,3661,42,30,2065,-6,5,1
3656,3662,48,25,2045,-5,1,-1
3657,3663,46,41,2043,-3,-3,-3
3658,3664,49,33,2050,-5,-4,-1
3659,3665,41,30,2053,-6,-2,-1
3660,3666,31,20,2050,-6,0,-1
3661,3667,36,24,2064,-8,0,1
3662,3668,22,28,2067,-4,2,1
3663,3669,37,26,2063,-5,3,0
3664,3670,44,31,2078,-3,2,-3
3665,3671,45,27,2049,-7,-1,-2
3666,3672,38,24,2038,-10,-2,1
3667,3673,29,33,2054,-4,-3,0
3668,3674,50,29,2063,-2,-5,3
3669,3675,51,17,2056,1,-5,1
3670,3676,52,26,2073,-4,-3,0
3671,3677,46,40,2071,-5,4,2
3672,3678,48,31,2079,-1,1,1
3673,3679,37,26,2071,1,1,1
3674,3680,32,40,2074,0,-2,2
3675,3681,44,31,2077,-3,-5,1
3676,3682,40,44,2063,-7,-7,2
3677,3683,41,29,2055,0,-3,3
3678,3684,44,17,2055,-2,0,3
3679,3685,39,30,2061,-6,1,1
3680,3686,44,31,2066,-8,-7,1
3681,3687,45,28,2069,-6,-7,1
3682,3688,46,27,2066,-1,-4,3
3683,3689,44,25,2057,-1,-2,2
3684,3690,43,24,2056,-5,-4,-2
3685,3691,41,23,2052,-7,-3,-2
3686,3692,53,33,2071,-1,-6,-1
3687,3693,50,37,2076,2,-7,3
3688,3694,54,36,2066,-3,-3,1
3689,3695,52,27,2074,-8,2,3
3690,3696,51,25,2080,-7,-1,2
3691,3697,45,36,2057,-4,-3,1
3692,3698,42,27,2050,-2,-4,-1
3693,3699,38,17,2074,-2,-4,-1
3694,3700,53,28,2062,0,-2,2
3695,3701,46,25,2063,-2,-1,0
3696,3702,39,30,2083,1,2,2
3697,3703,44,28,2086,-1,1,1
3698,3704,40,16,2072,-2,1,-1
3699,3705,45,22,2068,-3,-4,2
3700,3706,54,37,2069,-6,-4,1
3701,3707,47,36,2063,-4,-5,-1
3702,3708,37,24,2061,-2,-9,0
3703,3709,40,30,2056,0,-5,2
3704,3710,39,31,2055,-2,-2,0
3705,3711,42,32,2066,-5,3,3
3706,3712,45,29,2067,0,1,-1
3707,3713,48,23,2065,2,-3,-2
3708,3714,40,22,2048,1,-4,2
3709,3715,38,32,2049,-1,0,2
3710,3716,39,31,2064,-2,0,0
3711,3717,39,33,2080,-1,-4,2
3712,3718,49,27,2072,0,-1,-2
3713,3719,48,39,2063,4,-1,2
3714,3720,47,24,2064,-2,-2,4
3715,3721,45,16,2044,-3,-2,4
3716,3722,48,32,2065,-1,-5,3
3717,3723,45,35,2079,-3,-3,3
3718,3724,38,49,2070,-1,0,1
3719,3725,42,42,2062,2,0,2
3720,3726,51,29,2070,2,-1,3
3721,3727,51,34,2057,-3,-4,4
3722,3728,43,28,2060,-3,-7,3
3723,3729,48,28,2063,1,-7,4
3724,3730,52,26,2069,1,0,2
3725,3731,47,26,2058,0,0,0
3726,3732,44,23,2067,1,-2,0
3727,3733,64,26,2078,2,-6,5
3728,3734,61,25,2075,3,-2,8
3729,3735,49,34,2065,1,-1,6
3730,3736,37,20,2067,-2,-2,4
3731,3737,33,15,2054,-4,-1,1
3732,3738,46,16,2067,-3,0,0
3733,3739,53,25,2064,2,-6,2
3734,3740,40,33,2075,1,-7,4
3735,3741,25,32,2066,-1,-7,3
3736,3742,31,23,2054,-1,-10,0
3737,3743,33,26,2047,2,-10,1
3738,3743,39,30,2059,6,-7,1
3739,3744,49,22,2061,7,-5,3
3740,3745,55,25,2058,5,-7,4
3741,3746,48,30,2058,3,-6,1
3742,3747,48,10,2070,2,-5,-3
3743,3748,44,19,2058,0,-6,-3
3744,3749,38,38,2040,-1,-5,0
3745,3750,49,36,2065,-2,-5,3
3746,3751,42,40,2069,0,-4,2
3747,3752,43,41,2053,3,-3,3
3748,3753,39,28,2067,5,-6,3
3749,3754,45,25,2071,1,-5,4
3750,3755,46,33,2068,0,-1,1
3751,3756,33,39,2047,-2,-4,-1
3752,3758,39,27,2055,-1,-7,1
3753,3759,45,20,2049,3,-3,4
3754,3760,37,31,2056,7,-4,3
3755,3761,40,28,2041,5,-6,2
3756,3762,56,25,2045,2,-7,0
3757,3763,50,22,2058,2,-2,-1
3758,3764,56,31,2046,3,1,2
3759,3765,44,39,2053,0,-3,1
3760,3766,55,42,2060,4,-13,2
3761,3767,43,33,2061,2,-13,0
3762,3768,40,26,2060,3,-6,-2
3763,3769,37,20,2061,7,-7,0
3764,3770,27,23,2062,6,0,-2
3765,3771,42,29,2070,4,-2,0
3766,3772,54,28,2056,5,-6,2
3767,3773,48,22,2052,6,-4,2
3768,3774,46,39,2050,6,-4,0
3769,3775,40,27,2058,4,-8,-1
3770,3776,49,34,2052,6,-10,1
3771,3777,47,30,2044,7,-8,0
3772,3778,49,24,2067,7,-3,-3
3773,3779,39,23,2073,1,-5,-1
3774,3780,45,14,2070,1,-10,-4
3775,3781,53,39,2071,6,-13,-1
3776,3782,58,33,2056,8,-4,3
3777,3783,48,20,2054,8,-1,0
3778,3784,50,18,2074,9,-2,-2
3779,3785,41,33,2045,8,-7,-2
3780,3785,34,27,2047,5,-4,-1
3781,3786,44,32,2044,7,-7,0
3782,3787,47,35,2053,6,-9,3
3783,3788,48,28,2061,6,-6,2
3784,3789,55,26,2057,4,3,0
3785,3790,53,34,2054,4,3,0
3786,3791,53,34,2073,4,-7,2
3787,3792,37,25,2073,4,-6,1
3788,3793,45,26,2080,8,-5,1
3789,3794,47,24,2073,8,-7,-1
3790,3795,33,32,2071,9,-9,0
3791,3796,46,35,2045,12,-8,2
3792,3797,60,37,2065,14,-7,0
3793,3798,60,33,2069,8,-4,-1
3794,3800,52,25,2062,7,-5,0
3795,3801,44,34,2060,8,-4,-2
3796,3802,40,25,2051,10,-2,-3
3797,3803,50,16,2059,6,-6,-2
3798,3804,44,31,2047,5,-7,3
3799,3805,38,34,2055,6,-7,3
3800,3806,59,43,2053,6,-6,-2
3801,3807,66,43,2068,7,-3,-2
3802,3808,60,29,2077,9,-1,-4
3803,3809,54,41,2063,9,-3,-4
3804,3810,51,33,2055,8,0,-6
3805,3811,39,32,2065,8,-3,-2
3806,3812,50,37,2036,9,-8,1
3807,3813,50,30,2053,5,-6,-2
3808,3814,49,38,2050,4,-1,-6
3809,3815,52,45,2062,4,-5,-6
3810,3816,56,38,2051,7,-9,-2
3811,3817,56,36,2063,10,-6,1
3812,3818,62,27,2051,9,-5,-3
3813,3819,58,30,2071,10,-3,-1
3814,3820,62,29,2082,9,-2,0
3815,3821,53,32,2089,8,-1,-2
3816,3822,54,45,2078,5,-2,2
3817,3823,54,41,2060,6,-4,-1
3818,3824,58,38,2081,5,-4,-11
3819,3825,54,21,2074,5,-4,-12
3820,3826,38,15,2064,6,3,-9
3821,3827,40,22,2058,8,4,-6
3822,3827,51,34,2061,9,1,-4
3823,3828,40,33,2053,12,1,-2
3824,3829,51,37,2052,13,-3,-5
3825,3830,43,38,2052,11,-6,-7
3826,3831,54,28,2053,5,-7,-6
3827,3832,53,26,2052,5,-3,-3
3828,3833,59,16,2057,5,0,-2
3829,3834,55,17,2056,4,-4,1
3830,3835,54,32,2044,7,-3,4
3831,3836,48,33,2052,11,-2,1
3832,3837,57,28,2066,12,-3,-2
3833,3838,57,38,2054,8,-3,-1
3834,3839,54,41,2052,10,-6,4
3835,3840,54,35,2055,9,-8,0
3836,3842,59,43,2053,12,-5,-1
3837,3843,76,35,2046,11,-4,-2
3838,3844,65,26,2075,8,-1,-2
3839,3845,58,19,2063,6,-2,3
3840,3846,35,26,2059,6,-4,2
3841,3847,48,37,2056,7,-5,-4
3842,3848,68,36,2056,7,-1,-6
3843,3849,63,34,2052,11,0,-1
3844,3850,62,30,2067,16,-2,-1
3845,3851,54,27,2060,18,-1,-3
3846,3852,49,27,2057,13,-1,-7
3847,3853,43,35,2052,8,-4,-5
3848,3854,52,31,2044,6,-5,0
3849,3855,60,38,2055,8,-1,0
3850,3856,56,37,2062,11,1,3
3851,3857,52,33,2068,9,-3,-2
3852,3858,49,17,2053,9,-4,-4
3853,3859,50,29,2064,9,-3,-3
3854,3860,56,38,2058,8,2,-4
3855,3861,53,35,2056,8,1,-5
3856,3862,51,32,2052,3,0,-4
3857,3863,48,26,2067,4,3,-3
3858,3864,49,31,2059,9,2,0
3859,3865,56,36,2058,11,-2,3
3860,3866,47,39,2059,11,-3,0
3861,3867,53,36,2065,8,-2,-2
3862,3868,49,34,2063,7,-1,-1
3863,3869,52,35,2060,8,2,-4
3864,3869,56,35,2048,9,2,-6
3865,3870,51,41,2051,8,0,-4
3866,3871,50,37,2057,7,1,-4
3867,3872,47,28,2057,10,-2,-6
3868,3873,47,38,2063,9,-5,-7
3869,3874,52,34,2054,7,-2,-7
3870,3875,61,33,2068,10,1,-7
3871,3876,62,35,2067,6,2,-6
3872,3877,61,27,2059,3,1,-1
3873,3878,51,45,2050,5,-1,1
3874,3879,46,36,2074,8,-1,-3
3875,3880,44,46,2073,6,-3,-4
3876,3881,42,45,2055,8,-1,-6
3877,3882,52,28,2041,11,5,-4
3878,3884,55,27,2075,11,3,-3
3879,3885,55,27,2082,9,5,-3
3880,3886,53,33,2070,10,5,-3
3881,3887,56,54,2067,10,0,-2
3882,3888,60,56,2078,8,2,-3
3883,3889,50,48,2051,4,7,-5
3884,3890,40,40,2039,4,4,-7
3885,3891,44,30,2044,9,-2,-4
3886,3892,49,27,2043,8,-7,-1
3887,3893,51,38,2045,8,-2,-1
3888,3894,59,43,2058,10,6,0
3889,3895,67,48,2052,12,3,-1
3890,3896,71,46,2054,8,-2,3
3891,3897,55,42,2074,8,-2,-1
3892,3898,51,28,2082,3,-2,-4
3893,3899,42,28,2081,3,-2,-3
3894,3900,48,40,2062,2,2,-3
3895,3901,45,42,2063,2,9,-5
3896,3902,51,42,2076,5,15,-2
3897,3903,57,45,2055,8,12,0
3898,3904,52,42,2047,3,4,1
3899,3905,63,40,2042,6,-1,-2
3900,3906,70,37,2037,7,-7,-5
3901,3907,50,36,2035,5,-6,-5
3902,3908,45,32,2035,2,-1,0
3903,3909,52,46,2048,3,5,1
3904,3910,43,39,2056,4,5,5
3905,3911,44,43,2069,0,11,4
3906,3911,54,45,2055,1,8,-2
3907,3912,60,46,2061,3,5,-5
3908,3913,61,41,2060,6,-1,-8
3909,3914,52,44,2071,6,3,-8
3910,3915,54,31,2071,6,10,-4
3911,3916,43,30,2058,6,10,3
3912,3917,53,27,2058,6,4,2
3913,3918,54,42,2059,4,3,-8
3914,3919,51,52,2051,5,0,-10
3915,3920,51,47,2038,7,4,-6
3916,3921,48,44,2042,2,10,-2
3917,3922,51,33,2046,-2,10,1
3918,3923,51,39,2041,0,9,4
3919,3924,59,28,2037,3,9,-1
3920,3926,54,29,2046,4,10,2
3921,3927,45,43,2055,4,9,3
3922,3928,52,53,2076,2,6,4
3923,3929,60,48,2060,-2,1,1
3924,3930,48,46,2054,-1,5,-1
3925,3931,58,29,2060,0,6,-3
3926,3932,48,39,2066,1,4,-2
3927,3933,58,43,2075,2,3,-3
3928,3934,51,48,2063,2,6,-3
3929,3935,53,44,2071,1,3,-1
3930,3936,52,44,2072,1,3,0
3931,3937,46,44,2062,6,8,0
3932,3938,49,42,2080,11,6,-5
3933,3939,56,43,2061,6,0,-5
3934,3940,55,40,2056,2,0,-2
3935,3941,62,35,2055,-1,-1,3
3936,3942,62,38,2089,-2,3,4
3937,3943,47,30,2066,1,5,-1
3938,3944,57,33,2057,1,6,-4
3939,3945,60,48,2061,-2,10,-9
3940,3946,59,38,2062,-4,13,-6
3941,3947,65,45,2075,-4,9,-1
3942,3948,64,42,2068,-1,6,-1
3943,3949,63,37,2061,5,4,-2
3944,3950,47,39,2049,6,4,-3
3945,3951,40,40,2042,2,5,-3
3946,3952,42,38,2047,1,7,-3
3947,3953,47,40,2068,-1,8,-3
3948,3954,39,49,2056,-2,5,0
3949,3955,53,56,2057,3,6,4
3950,3956,53,44,2046,7,11,1
3951,3957,55,44,2067,2,10,-5
3952,3958,49,40,2056,5,3,-3
3953,3959,44,37,2056,3,2,4
3954,3960,53,46,2071,0,2,7
3955,3961,54,26,2067,0,3,3
3956,3962,50,31,2053,-1,3,-1
3957,3963,47,49,2062,-3,7,-6
3958,3964,49,39,2054,-2,9,-4
3959,3965,48,45,2055,1,12,2
3960,3966,47,35,2060,3,15,0
3961,3967,48,42,2044,5,12,-3
3962,3968,53,40,2062,5,7,-2
3963,3969,41,33,2066,3,5,1
3964,3970,29,49,2073,0,4,0
3965,3971,44,47,2058,-1,1,0
3966,3972,54,37,2052,-2,4,-1
3967,3973,51,43,2065,-3,10,2
3968,3974,47,40,2059,-1,9,-1
3969,3975,61,40,2045,3,7,-2
3970,3976,54,41,2045,2,4,-3
3971,3977,37,40,2048,-1,1,-1
3972,3978,30,36,2070,-1,3,1
3973,3979,33,29,2056,-1,4,-2
3974,3980,41,34,2059,0,8,-2
3975,3981,49,34,2067,0,11,0
3976,3982,44,42,2057,1,12,0
3977,3983,54,50,2066,-5,11,1
3978,3984,59,45,2068,-6,9,0
3979,3985,46,55,2058,-2,11,0
3980,3986,48,55,2065,0,12,2
3981,3987,44,47,2068,-3,8,0
3982,3988,47,46,2071,-4,1,-2
3983,3989,42,39,2058,-2,4,1
3984,3990,49,40,2048,-2,9,0
3985,3991,42,41,2076,-1,8,-1
3986,3992,49,29,2072,-2,6,-3
3987,3993,45,45,2058,-4,6,-4
3988,3994,48,42,2053,-2,6,-5
3989,3995,49,47,2063,0,5,-4
3990,3995,43,46,2064,-5,5,1
3991,3996,40,41,2078,-4,12,2
3992,3997,44,31,2061,-4,11,-2
3993,3998,52,37,2062,-2,6,-5
3994,3999,51,38,2066,-2,3,-4
3995,4000,48,42,2046,-5,5,-4
3996,4001,44,34,2045,-5,6,1
3997,4002,46,38,2058,-5,6,0
3998,4003,46,46,2071,-4,6,0
3999,4004,53,43,2067,-3,6,0
4000,4005,54,39,2053,-5,3,-1
4001,4006,47,45,2060,-3,6,0
4002,4007,42,33,2058,-1,4,3
4003,4008,40,42,2063,-2,0,1
4004,4012,51,31,2062,-2,-3,-2
4005,4013,54,40,2063,-1,-5,1
4006,4014,56,39,2074,-5,0,1
4007,4015,50,34,2063,-7,4,-2
4008,4016,54,37,2053,-5,7,-6
4009,4017,49,39,2066,-9,-1,-1
4010,4018,50,32,2068,-9,2,2
4011,4019,55,35,2066,-5,9,4
4012,4020,54,35,2068,-6,13,3
4013,4021,58,29,2061,-9,9,4
4014,4022,50,39,2054,-9,3,5
4015,4023,35,54,2060,-9,2,3
4016,4024,30,42,2064,-7,5,-1
4017,4025,37,38,2039,-6,6,2
4018,4024,51,35,2034,-9,5,1
4019,4025,47,37,2048,-9,4,3
4020,4026,54,36,2065,-11,5,4
4021,4027,49,36,2052,-6,5,3
4022,4028,41,30,2060,-4,5,1
4023,4029,40,34,2061,-8,5,-3
4024,4030,42,28,2048,-7,6,-1
4025,4031,36,29,2052,-8,4,5
4026,4032,46,37,2072,-10,6,3
4027,4033,37,41,2067,-8,8,-1
4028,4034,36,37,2055,-6,2,-1
4029,4035,40,32,2048,-3,-1,1
4030,4036,49,34,2042,-3,-2,0
4031,4037,52,55,2046,-2,0,0
4032,4037,42,57,2059,-4,2,-3
4033,4038,37,46,2076,-5,3,-1
4034,4039,36,45,2071,-4,4,2
4035,4040,39,46,2065,-3,9,3
4036,4041,44,29,2065,-8,13,-3
4037,4042,48,33,2071,-10,8,-3
4038,4043,43,39,2055,-11,2,-1
4039,4044,50,31,2053,-13,4,-5
4040,4045,40,42,2050,-7,8,0
4041,4046,38,41,2047,-4,8,1
4042,4047,42,39,2049,1,6,5
4043,4048,47,44,2053,-2,5,7
4044,4049,48,41,2037,-6,4,7
4045,4050,46,44,2062,-9,2,-1
4046,4052,28,43,2060,-6,2,1
4047,4053,30,50,2061,-8,2,4
4048,4054,38,43,2049,-9,4,-2
4049,4055,35,42,2069,-10,4,-1
4050,4056,39,43,2076,-7,5,3
4051,4057,46,30,2054,-7,9,1
4052,4058,52,37,2063,-9,4,0
4053,4059,52,38,2066,-5,1,1
4054,4060,62,29,2072,-4,2,1
4055,4061,47,29,2060,-8,3,2
4056,4062,45,37,2055,-13,4,1
4057,4063,41,28,2063,-11,2,-1
4058,4064,44,31,2066,-6,3,1
4059,4065,48,43,2078,-4,2,0
4060,4066,41,39,2051,-7,0,0
4061,4067,40,43,2070,-8,-2,-2
4062,4068,42,31,2068,-5,3,-1
4063,4069,35,41,2066,-8,5,-1
4064,4070,38,48,2061,-8,8,2
4065,4071,43,32,2068,-5,5,3
4066,4072,41,22,2063,-11,4,6
4067,4073,34,20,2044,-7,3,7
4068,4074,38,27,2081,-2,4,1
4069,4075,39,43,2067,-3,4,-6
4070,4076,43,32,2068,-9,3,-3
4071,4077,49,28,2052,-11,3,-3
4072,4078,54,30,2057,-8,1,0
4073,4079,47,31,2067,-7,-4,3
4074,4079,39,39,2072,-4,-2,4
4075,4080,46,37,2071,-7,5,2
4076,4081,45,37,2068,-10,6,0
4077,4082,39,48,2063,-7,1,2
4078,4083,43,50,2057,-6,-2,2
4079,4084,47,42,2067,-6,5,-1
4080,4085,46,37,2068,-9,7,-2
4081,4086,53,46,2061,-11,-2,-1
4082,4087,38,44,2058,-8,2,0
4083,4088,39,39,2052,-9,7,-1
4084,4089,39,40,2055,-10,5,1
4085,4090,46,38,2070,-12,4,1
4086,4091,37,33,2073,-12,2,4
4087,4092,46,28,2062,-11,-1,7
4088,4094,49,29,2053,-12,0,1
4089,4095,55,39,2066,-10,-1,-3
4090,4096,53,43,2051,-9,4,-3
4091,4097,52,33,2060,-10,9,1
4092,4098,39,33,2074,-8,5,5
4093,4099,44,27,2065,-9,1,5
4094,4100,55,27,2069,-11,1,-1
4095,4101,57,35,2057,-12,1,-4
4096,4102,40,40,2041,-7,0,-3
4097,4103,43,19,2047,-4,4,-1
4098,4104,35,33,2059,-5,4,1
4099,4105,36,37,2075,-7,-2,5
4100,4106,41,32,2056,-7,-1,1
4101,4107,47,40,2072,-14,-2,-3
4102,4108,41,36,2076,-17,1,-1
4103,4109,55,33,2070,-11,5,-1
4104,4110,44,42,2050,-4,2,-1
4105,4111,47,26,2057,-4,0,2
4106,4112,49,28,2058,-9,0,5
4107,4113,51,25,2059,-7,4,3
4108,4114,39,29,2067,-4,7,3
4109,4115,39,32,2068,-6,1,4
4110,4116,44,41,2058,-6,-3,5
4111,4117,50,43,2060,-7,1,2
4112,4118,47,32,2064,-7,2,1
4113,4119,51,26,2069,-8,2,-2
4114,4120,44,22,2070,-8,0,-1
4115,4121,48,25,2073,-7,3,1
4116,4121,41,35,2048,-10,3,1
4117,4122,42,28,2051,-9,3,0
4118,4123,42,24,2048,-7,6,-2
4119,4124,56,21,2049,-8,7,-2
4120,4125,48,21,2056,-9,5,-3
4121,4126,46,21,2060,-7,-1,-3
4122,4127,32,16,2056,-4,-4,0
4123,4128,41,23,2043,-4,-2,1
4124,4129,41,34,2069,-5,3,3
4125,4130,37,44,2056,-7,-1,1
4126,4131,38,47,2052,-4,1,-1
4127,4132,39,28,2070,-5,2,-1
4128,4133,44,27,2081,-5,5,1
4129,4134,38,31,2064,-6,1,2
4130,4136,30,38,2065,-8,1,-1
4131,4137,44,53,2075,-4,1,1
4132,4138,40,36,2076,-2,-1,0
4133,4139,44,26,2057,-8,4,-2
4134,4140,46,38,2058,-10,5,1
4135,4141,33,30,2051,-7,0,7
4136,4142,39,39,2050,-8,1,11
4137,4143,46,45,2048,-9,2,7
4138,4144,51,43,2041,-4,-3,3
4139,4145,55,33,2060,-1,-3,5
4140,4146,69,22,2056,-3,-2,4
4141,4147,53,21,2069,-7,-3,3
4142,4148,48,18,2083,-13,-3,5
4143,4149,51,30,2088,-15,-4,1
4144,4150,36,31,2069,-11,3,-4
4145,4151,33,13,2071,-11,4,-2
4146,4152,51,26,2054,-11,4,5
4147,4153,43,28,2046,-4,11,5
4148,4154,42,35,2071,-2,9,2
4149,4155,36,29,2059,-2,-6,-1
4150,4156,34,25,2052,-2,-13,0
4151,4157,28,33,2041,-5,-6,2
4152,4158,28,30,2043,-7,3,5
4153,4159,37,23,2049,-10,3,6
4154,4160,29,16,2054,-10,-2,6
4155,4161,41,17,2059,-12,-2,3
4156,4162,47,32,2054,-6,4,0
4157,4163,49,30,2052,-1,3,0
4158,4163,43,28,2058,2,4,2
4159,4164,46,26,2062,-1,3,2
4160,4165,35,19,2086,2,2,0
4161,4166,41,26,2070,-1,3,1
4162,4167,40,28,2056,-6,-3,1
4163,4168,35,29,2044,-3,-6,-1
4164,4169,35,26,2046,-3,0,-2
4165,4170,38,33,2054,-7,3,-1
4166,4171,50,40,2049,-8,0,1
4167,4172,37,36,2046,-11,-2,5
4168,4173,40,28,2051,-8,-2,6
4169,4174,50,20,2064,-1,-2,2
4170,4175,51,29,2069,0,-7,4
4171,4176,52,36,2071,-5,-6,6
4172,4178,45,44,2067,-5,0,4
4173,4179,47,34,2058,-5,2,4
4174,4180,40,23,2065,-6,3,2
4175,4181,46,31,2058,-7,0,-3
4176,4182,52,23,2048,-6,-4,-1
4177,4183,48,19,2055,-2,0,3
4178,4184,36,27,2050,1,1,2
4179,4185,44,14,2068,0,-2,3
4180,4186,43,30,2054,-1,-3,2
4181,4187,55,28,2041,-3,-2,0
4182,4188,46,25,2039,-3,-2,0
4183,4189,39,34,2062,1,-2,2
4184,4190,47,36,2055,-1,-1,3
4185,4191,44,32,2051,-5,0,0
4186,4192,48,31,2066,-6,0,2
4187,4193,42,24,2055,-5,-6,2
4188,4194,45,27,2045,-3,-5,1
4189,4195,43,35,2053,1,0,1
4190,4196,41,19,2065,2,5,2
4191,4197,47,16,2089,0,2,6
4192,4198,49,24,2060,-2,1,5
4193,4199,44,28,2058,-1,2,1
4194,4200,49,27,2072,1,-3,-2
4195,4201,47,26,2064,-3,-5,-2
4196,4202,35,25,2056,-1,0,2
4197,4203,38,35,2059,-1,0,3
4198,4204,35,40,2034,-1,-3,3
4199,4205,41,30,2048,-2,-3,3
4200,4205,52,17,2058,-2,-1,2
4201,4206,49,22,2049,1,-2,3
4202,4207,45,15,2065,3,-1,2
4203,4208,47,41,2060,1,1,0
4204,4209,40,31,2056,-3,-3,0
4205,4210,43,33,2062,-3,-6,0
4206,4211,44,43,2064,0,-3,-2
4207,4212,51,21,2054,1,-6,-1
4208,4213,49,25,2061,0,-5,-1
4209,4214,43,8,2069,-2,-2,-1
4210,4215,40,26,2073,-1,-4,0
4211,4216,49,25,2054,-2,-9,1
4212,4217,51,22,2067,1,-5,-3
4213,4218,46,32,2067,-2,1,-2
4214,4220,53,25,2068,-3,-4,1
4215,4221,45,28,2046,-2,-4,-2
4216,4222,46,27,2044,2,-5,-2
4217,4223,41,28,2050,5,-1,0
4218,4224,37,35,2063,-1,1,1
4219,4225,53,26,2054,0,3,1
4220,4226,42,35,2079,1,3,1
4221,4227,42,26,2074,3,-2,3
4222,4228,46,27,2060,2,-4,6
4223,4229,43,41,2058,4,-5,3
4224,4230,34,24,2067,1,-3,1
4225,4231,44,29,2059,-1,0,3
4226,4232,44,24,2052,-1,-2,0
4227,4233,40,9,2064,0,-8,-3
4228,4234,41,29,2055,-3,-2,0
4229,4235,44,18,2037,6,1,3
4230,4236,53,22,2050,10,-3,0
4231,4237,41,27,2058,9,-3,3
4232,4238,45,29,2066,3,-1,3
4233,4239,37,29,2062,0,-2,2
4234,4240,44,27,2060,2,-7,0
4235,4241,55,30,2070,2,-7,-2
4236,4242,37,31,2068,3,-3,2
4237,4243,44,24,2062,6,-2,-2
4238,4244,40,27,2038,7,-6,-2
4239,4245,48,30,2062,9,-6,2
4240,4246,41,42,2070,6,-7,-1
4241,4247,50,26,2056,4,-4,1
4242,4247,52,20,2068,1,-1,0
4243,4248,52,29,2073,4,2,-2
4244,4249,38,21,2056,5,1,1
4245,4250,45,16,2057,3,-4,3
4246,4251,46,21,2071,1,-4,4
